timestamp (AEST),ax,ay,az,gx,gy,gz
2025-10-11 16:12:30.165,-40,59,995,-1831,1464,2014
2025-10-11 16:12:30.165,-52,64,998,-4760,1647,1342
2025-10-11 16:12:30.213,-55,45,1008,-3723,-183,1037
2025-10-11 16:12:30.213,-50,49,1008,-1159,-2136,366
2025-10-11 16:12:30.215,-46,71,1007,-2197,-2807,-183
2025-10-11 16:12:30.262,-46,47,1030,-2929,-2807,61
2025-10-11 16:12:30.263,-33,48,1037,-1525,-1831,-122
2025-10-11 16:12:30.311,-25,60,1031,-2319,-244,-366
2025-10-11 16:12:30.312,-31,55,1033,-3906,0,61
2025-10-11 16:12:30.312,-32,29,1036,-2502,-915,122
2025-10-11 16:12:30.360,-30,30,1034,793,-1525,122
2025-10-11 16:12:30.361,-26,56,1028,366,-1037,183
2025-10-11 16:12:30.409,-27,61,1028,-2014,366,0
2025-10-11 16:12:30.409,-38,51,1040,-2685,305,-488
2025-10-11 16:12:30.456,-35,30,1043,15319,-671,-1342
2025-10-11 16:12:30.457,-33,49,1031,610,-427,-1281
2025-10-11 16:12:30.458,-34,42,1034,-732,0,-854
2025-10-11 16:12:30.505,-34,36,1033,-1770,549,-793
2025-10-11 16:12:30.506,-34,39,1026,-2136,1464,-610
2025-10-11 16:12:30.554,-40,30,1024,-2136,1220,-915
2025-10-11 16:12:30.555,-44,28,1025,-488,61,-488
2025-10-11 16:12:30.556,-39,35,1021,-183,244,-244
2025-10-11 16:12:30.602,-33,39,1021,-915,1159,-244
2025-10-11 16:12:30.603,-40,43,1024,-2685,1159,-671
2025-10-11 16:12:30.658,-39,31,1021,-3906,427,-549
2025-10-11 16:12:30.658,-37,17,1025,-2868,427,-305
2025-10-11 16:12:30.658,-43,26,1024,-2929,610,61
2025-10-11 16:12:30.701,-43,39,1027,-5187,854,549
2025-10-11 16:12:30.703,-37,31,1028,-6835,1464,366
2025-10-11 16:12:30.749,-50,4,1041,-5371,854,122
2025-10-11 16:12:30.749,-40,-7,1051,-1403,-305,915
2025-10-11 16:12:30.798,-28,-1,1042,793,610,1281
2025-10-11 16:12:30.798,-24,9,1019,-1464,3356,1159
2025-10-11 16:12:30.799,-34,-3,1005,-3295,5065,2502
2025-10-11 16:12:30.847,-62,-4,1012,-2136,854,3601
2025-10-11 16:12:30.847,-49,20,1008,976,-1220,2136
2025-10-11 16:12:30.895,-51,33,1008,1342,-1281,549
2025-10-11 16:12:30.897,-52,29,1010,1037,-854,183
2025-10-11 16:12:30.898,-49,26,1018,854,-732,-488
2025-10-11 16:12:30.951,-49,27,1026,732,-1892,-488
2025-10-11 16:12:30.951,-37,20,1022,976,-2014,-732
2025-10-11 16:12:30.996,-40,23,1025,305,-1342,-732
2025-10-11 16:12:30.996,-32,14,1029,61,-915,-549
2025-10-11 16:12:30.996,-37,14,1030,427,-671,-610
2025-10-11 16:12:31.042,-39,19,1030,671,-976,549
2025-10-11 16:12:31.043,-36,28,1026,915,-366,244
2025-10-11 16:12:31.091,-43,39,1031,671,61,-183
2025-10-11 16:12:31.091,-47,34,1036,366,-732,-671
2025-10-11 16:12:31.092,-40,31,1036,1342,-732,-1098
2025-10-11 16:12:31.139,-40,43,1038,305,-488,-1403
2025-10-11 16:12:31.140,-37,25,1041,-793,61,-1281
2025-10-11 16:12:31.187,-30,6,1039,488,732,-1281
2025-10-11 16:12:31.188,-33,14,1031,976,1098,-1220
2025-10-11 16:12:31.237,-36,15,1023,122,1281,-610
2025-10-11 16:12:31.240,-41,14,1023,15441,549,-732
2025-10-11 16:12:31.240,-43,19,1025,671,61,-915
2025-10-11 16:12:31.286,-43,23,1025,488,366,-1525
2025-10-11 16:12:31.288,-46,15,1023,305,732,-1403
2025-10-11 16:12:31.334,-48,8,1023,549,549,-793
2025-10-11 16:12:31.334,-43,11,1019,366,610,0
2025-10-11 16:12:31.335,-43,11,1018,-61,915,305
2025-10-11 16:12:31.383,-46,5,1012,-732,1037,610
2025-10-11 16:12:31.384,-49,2,1003,-1586,1159,1647
2025-10-11 16:12:31.480,-54,7,1007,-1953,732,2624
2025-10-11 16:12:31.481,-50,6,1019,14953,61,1892
2025-10-11 16:12:31.482,-49,18,1018,1037,-61,1159
2025-10-11 16:12:31.482,-52,25,1016,0,-305,793
2025-10-11 16:12:31.578,-48,16,1024,-305,-854,366
2025-10-11 16:12:31.579,-49,17,1026,793,-1403,61
2025-10-11 16:12:31.580,-45,20,1028,793,-1586,-305
2025-10-11 16:12:31.580,-36,25,1029,-61,-1098,-366
2025-10-11 16:12:31.626,-40,17,1029,0,-183,-671
2025-10-11 16:12:31.627,-49,17,1034,549,-732,-610
2025-10-11 16:12:31.628,-38,19,1032,1281,-1464,-732
2025-10-11 16:12:31.628,-29,22,1026,915,-183,-1037
2025-10-11 16:12:31.675,-39,17,1034,-1098,244,-854
2025-10-11 16:12:31.675,-41,4,1039,-488,-183,-671
2025-10-11 16:12:31.676,-35,7,1034,1037,-183,-549
2025-10-11 16:12:31.724,-39,17,1026,793,305,-671
2025-10-11 16:12:31.725,-46,12,1027,-183,244,-610
2025-10-11 16:12:31.773,-39,2,1020,122,427,-549
2025-10-11 16:12:31.774,-42,8,1014,0,793,-671
2025-10-11 16:12:31.774,-51,6,1016,-610,-244,183
2025-10-11 16:12:31.827,-48,2,1019,732,-1281,427
2025-10-11 16:12:31.827,-41,17,1020,1647,-854,61
2025-10-11 16:12:31.872,-45,31,1017,305,-122,-549
2025-10-11 16:12:31.873,-46,17,1025,732,-915,-732
2025-10-11 16:12:31.873,-45,22,1023,2075,-1586,-854
2025-10-11 16:12:31.919,-41,28,1022,1708,-1586,-854
2025-10-11 16:12:31.920,-36,29,1026,1037,-1464,-1098
2025-10-11 16:12:31.968,-31,25,1025,854,-1037,-1892
2025-10-11 16:12:31.969,-34,20,1022,915,-732,-1831
2025-10-11 16:12:31.969,-45,18,1022,732,-1403,-1525
2025-10-11 16:12:32.016,-41,21,1026,1281,-2197,-732
2025-10-11 16:12:32.017,-31,28,1029,1464,-1647,-2014
2025-10-11 16:12:32.086,-34,16,1027,671,-549,-2197
2025-10-11 16:12:32.086,-38,9,1028,610,-244,-1586
2025-10-11 16:12:32.118,-36,7,1024,305,-366,-976
2025-10-11 16:12:32.118,-35,8,1028,854,-549,-671
2025-10-11 16:12:32.118,-37,14,1025,1159,-854,-1464
2025-10-11 16:12:32.163,-38,12,1021,366,-1220,-1403
2025-10-11 16:12:32.163,-37,-1,1023,427,-976,-488
2025-10-11 16:12:32.211,-38,7,1024,915,-366,366
2025-10-11 16:12:32.212,-37,15,1025,427,244,488
2025-10-11 16:12:32.213,-36,11,1021,-305,-122,549
2025-10-11 16:12:32.260,-42,7,1024,305,-1342,427
2025-10-11 16:12:32.261,-40,10,1024,-366,-1647,305
2025-10-11 16:12:32.374,-32,3,1022,-183,-549,793
2025-10-11 16:12:32.374,-42,3,1023,-61,61,1037
2025-10-11 16:12:32.374,-44,4,1028,671,-854,1464
2025-10-11 16:12:32.417,-41,7,1031,2380,-2014,1281
2025-10-11 16:12:32.417,-33,23,1030,2685,-2136,793
2025-10-11 16:12:32.417,-31,20,1029,1464,-1403,915
2025-10-11 16:12:32.417,-31,17,1037,1220,-915,1647
2025-10-11 16:12:32.455,-24,27,1036,1586,366,915
2025-10-11 16:12:32.456,-29,31,1034,610,488,366
2025-10-11 16:12:32.457,-29,26,1025,793,122,122
2025-10-11 16:12:32.504,-28,31,1018,244,61,488
2025-10-11 16:12:32.505,-30,30,1020,183,-244,488
2025-10-11 16:12:32.552,-31,30,1025,1831,-793,305
2025-10-11 16:12:32.553,-31,38,1026,2868,-1159,-671
2025-10-11 16:12:32.554,-27,47,1024,1647,-976,-1281
2025-10-11 16:12:32.601,-29,32,1025,671,-793,-1647
2025-10-11 16:12:32.602,-31,25,1023,1708,-732,-1403
2025-10-11 16:12:32.660,-29,33,1026,1586,-1159,-1770
2025-10-11 16:12:32.660,-28,34,1029,488,-1525,-1708
2025-10-11 16:12:32.660,-24,27,1030,1098,-1037,-2197
2025-10-11 16:12:32.704,-22,27,1037,1464,-488,-2075
2025-10-11 16:12:32.704,-25,15,1037,1647,-305,-2197
2025-10-11 16:12:32.748,-25,24,1030,1525,305,-1647
2025-10-11 16:12:32.748,-31,25,1030,183,549,-1220
2025-10-11 16:12:32.796,-33,20,1033,183,183,-1464
2025-10-11 16:12:32.797,-32,24,1030,1464,305,-1464
2025-10-11 16:12:32.798,-33,28,1027,244,793,-1892
2025-10-11 16:12:32.846,-32,10,1022,-427,915,-1220
2025-10-11 16:12:32.846,-35,0,1027,1342,0,-610
2025-10-11 16:12:32.894,-36,15,1027,1464,-427,122
2025-10-11 16:12:32.895,-26,17,1015,488,1220,-183
2025-10-11 16:12:32.896,-33,12,1015,183,2319,-122
2025-10-11 16:12:32.947,-42,11,1015,976,1037,427
2025-10-11 16:12:32.948,-41,19,1012,1403,-427,305
2025-10-11 16:12:32.995,-37,26,1015,915,-610,244
2025-10-11 16:12:32.995,-36,26,1022,-61,-61,-122
2025-10-11 16:12:32.995,-35,21,1025,-366,488,-549
2025-10-11 16:12:33.040,-39,18,1027,15563,-183,-122
2025-10-11 16:12:33.041,-32,11,1026,793,-427,305
2025-10-11 16:12:33.089,-32,20,1024,671,305,854
2025-10-11 16:12:33.089,-32,23,1027,-305,854,793
2025-10-11 16:12:33.137,-35,17,1026,-549,549,793
2025-10-11 16:12:33.138,-34,16,1028,427,61,1220
2025-10-11 16:12:33.139,-33,24,1029,732,-305,1037
2025-10-11 16:12:33.187,-35,25,1031,915,-183,1098
2025-10-11 16:12:33.187,-32,27,1032,915,366,976
2025-10-11 16:12:33.238,-28,27,1027,732,1342,1037
2025-10-11 16:12:33.238,-33,25,1023,15563,915,915
2025-10-11 16:12:33.238,-38,16,1021,1098,-366,1403
2025-10-11 16:12:33.285,-35,26,1021,1220,-1037,1708
2025-10-11 16:12:33.286,-27,34,1020,793,-183,1403
2025-10-11 16:12:33.333,-33,41,1021,0,1159,732
2025-10-11 16:12:33.334,-34,23,1028,549,1037,305
2025-10-11 16:12:33.334,-33,14,1021,1586,427,305
2025-10-11 16:12:33.382,-30,13,1015,1464,244,671
2025-10-11 16:12:33.382,-32,24,1010,1098,549,2014
2025-10-11 16:12:33.430,-36,31,1008,1037,976,2624
2025-10-11 16:12:33.431,-45,35,1016,305,-183,1464
2025-10-11 16:12:33.431,-42,39,1021,183,-1220,976
2025-10-11 16:12:33.479,-46,37,1024,-61,-1403,854
2025-10-11 16:12:33.480,-35,42,1031,-671,-915,366
2025-10-11 16:12:33.534,-36,28,1039,-427,-488,-122
2025-10-11 16:12:33.535,-40,23,1043,671,-915,-183
2025-10-11 16:12:33.578,-32,28,1036,671,-610,-305
2025-10-11 16:12:33.580,-26,26,1035,-305,122,-122
2025-10-11 16:12:33.581,-30,16,1034,-183,183,122
2025-10-11 16:12:33.625,-33,20,1034,244,-244,549
2025-10-11 16:12:33.625,-31,29,1032,-1037,61,549
2025-10-11 16:12:33.674,-35,27,1034,-1342,488,244
2025-10-11 16:12:33.675,-37,24,1036,-671,244,0
2025-10-11 16:12:33.675,-37,28,1030,-61,610,-122
2025-10-11 16:12:33.722,-37,29,1029,-488,1098,-61
2025-10-11 16:12:33.723,-35,17,1027,-305,1159,-610
2025-10-11 16:12:33.772,-35,14,1019,610,976,-854
2025-10-11 16:12:33.773,-40,19,1014,732,671,0
2025-10-11 16:12:33.773,-34,28,1014,-366,305,244
2025-10-11 16:12:33.825,-42,31,1018,-1342,427,122
2025-10-11 16:12:33.825,-32,23,1026,-1586,854,-427
2025-10-11 16:12:33.870,-36,26,1025,-1892,1403,-183
2025-10-11 16:12:33.872,-37,38,1017,-5310,2502,-183
2025-10-11 16:12:33.873,-35,49,1017,-11901,3601,-61
2025-10-11 16:12:33.918,-35,49,1013,-20690,4211,671
2025-10-11 16:12:33.918,-37,53,1007,32516,4760,732
2025-10-11 16:12:33.967,-46,13,1023,21530,5432,488
2025-10-11 16:12:33.967,-36,-34,1031,18234,6042,-61
2025-10-11 16:12:34.015,-46,-60,1028,18906,7080,976
2025-10-11 16:12:34.016,-52,-73,1026,18784,8117,1098
2025-10-11 16:12:34.016,-54,-51,1023,5112,8728,-305
2025-10-11 16:12:34.085,-47,0,988,-21194,10681,-2014
2025-10-11 16:12:34.085,-45,-33,987,11505,12207,-1708
2025-10-11 16:12:34.114,-58,-217,980,-886,15319,-1525
2025-10-11 16:12:34.115,-72,-307,982,2838,17456,-1220
2025-10-11 16:12:34.115,-82,-348,967,10772,17456,-1037
2025-10-11 16:12:34.162,-90,-371,944,16815,16113,-976
2025-10-11 16:12:34.163,-86,-322,917,8209,14587,-2319
2025-10-11 16:12:34.210,-91,-375,878,-2656,14526,-244
2025-10-11 16:12:34.211,-87,-467,859,-6257,14160,-793
2025-10-11 16:12:34.212,-90,-490,819,-12909,14587,-2319
2025-10-11 16:12:34.259,-97,-521,768,-22370,15258,-2685
2025-10-11 16:12:34.260,-98,-602,735,-25544,16357,-2807
2025-10-11 16:12:34.307,-100,-607,694,31508,17272,-5920
2025-10-11 16:12:34.308,-107,-617,627,18630,19165,-7141
2025-10-11 16:12:34.372,-108,-779,586,21377,22583,-5615
2025-10-11 16:12:34.372,-118,-817,545,28151,24597,-9277
2025-10-11 16:12:34.372,-116,-827,477,31753,26611,-11230
2025-10-11 16:12:34.407,-125,-889,438,-28595,28625,-12023
2025-10-11 16:12:34.407,-125,-938,401,-19928,29602,-12512
2025-10-11 16:12:34.454,-106,-979,343,-2717,-31174,-12756
2025-10-11 16:12:34.455,-109,-916,271,-5402,-29526,-14770
2025-10-11 16:12:34.456,-104,-987,224,-3266,-28610,-12145
2025-10-11 16:12:34.503,-118,-1029,188,5645,-27512,-10375
2025-10-11 16:12:34.503,-117,-1045,141,19500,-27878,-7568
2025-10-11 16:12:34.551,-118,-1011,113,21270,-32028,-8789
2025-10-11 16:12:34.552,-112,-991,57,24749,29357,-6408
2025-10-11 16:12:34.553,-118,-1056,20,-28030,24902,-61
2025-10-11 16:12:34.600,-123,-1062,0,-12344,20141,2502
2025-10-11 16:12:34.601,-110,-1055,-30,4745,16662,1892
2025-10-11 16:12:34.660,-112,-1035,-46,21774,12268,-3479
2025-10-11 16:12:34.660,-112,-970,-67,21652,9033,-6591
2025-10-11 16:12:34.702,-108,-973,-93,20676,7934,-6591
2025-10-11 16:12:34.702,-99,-1025,-116,26352,8850,-3173
2025-10-11 16:12:34.702,-97,-1052,-131,-26306,10620,-1525
2025-10-11 16:12:34.746,-91,-1044,-133,-9399,10437,1770
2025-10-11 16:12:34.747,-110,-1033,-140,3479,8850,976
2025-10-11 16:12:34.795,-105,-960,-133,2258,3845,-1831
2025-10-11 16:12:34.796,-102,-984,-136,244,671,-2319
2025-10-11 16:12:34.797,-90,-1008,-135,4821,0,-671
2025-10-11 16:12:34.844,-94,-1001,-130,11291,427,305
2025-10-11 16:12:34.845,-93,-964,-121,8300,366,-793
2025-10-11 16:12:34.892,-96,-956,-121,1037,305,-2197
2025-10-11 16:12:34.893,-92,-984,-120,-1098,671,-1647
2025-10-11 16:12:34.894,-92,-1000,-123,2624,1464,61
2025-10-11 16:12:34.944,-94,-975,-125,2258,1037,-1159
2025-10-11 16:12:34.944,-88,-976,-125,1159,549,-1403
2025-10-11 16:12:34.991,-88,-984,-128,2136,427,-1281
2025-10-11 16:12:34.993,-80,-995,-129,5615,1342,-732
2025-10-11 16:12:34.993,-86,-1003,-126,10803,2197,183
2025-10-11 16:12:35.039,-99,-976,-117,10559,183,122
2025-10-11 16:12:35.039,-94,-943,-113,3784,-1586,-854
2025-10-11 16:12:35.088,-86,-973,-113,-549,-1770,-1525
2025-10-11 16:12:35.088,-88,-1013,-110,4028,-122,-488
2025-10-11 16:12:35.136,-91,-973,-104,4333,488,-732
2025-10-11 16:12:35.137,-90,-950,-107,-1831,244,-1403
2025-10-11 16:12:35.138,-88,-992,-106,-2868,305,-1281
2025-10-11 16:12:35.185,-90,-1018,-107,3417,305,-610
2025-10-11 16:12:35.186,-87,-1014,-111,9826,366,244
2025-10-11 16:12:35.242,-88,-1003,-109,12878,-122,1586
2025-10-11 16:12:35.242,-102,-974,-100,3601,-3479,1403
2025-10-11 16:12:35.242,-93,-991,-94,-183,-4150,1892
2025-10-11 16:12:35.283,-91,-1023,-90,4272,-3295,2868
2025-10-11 16:12:35.284,-98,-1039,-83,14953,-1892,2868
2025-10-11 16:12:35.331,-98,-1029,-79,26977,-976,4150
2025-10-11 16:12:35.332,-107,-934,-68,18066,-2197,2075
2025-10-11 16:12:35.333,-82,-922,-76,244,-1525,976
2025-10-11 16:12:35.380,-83,-1064,-105,7873,2014,4821
2025-10-11 16:12:35.381,-105,-1280,-88,1419,6713,15380
2025-10-11 16:12:35.429,-144,-1351,-36,16266,671,25146
2025-10-11 16:12:35.430,-141,-1017,-10,26886,-18859,21667
2025-10-11 16:12:35.478,-102,-726,92,-30181,-25451,8972
2025-10-11 16:12:35.479,-86,-935,139,17593,-17211,7873
2025-10-11 16:12:35.479,-128,-1221,181,13032,-2319,25695
2025-10-11 16:12:35.532,-165,-1291,233,32395,854,-24094
2025-10-11 16:12:35.532,-243,-959,292,-7262,-11108,29541
2025-10-11 16:12:35.576,-233,-811,388,-10008,-25024,29724
2025-10-11 16:12:35.577,-189,-845,464,-12206,-31921,-29221
2025-10-11 16:12:35.577,-194,-893,503,7509,-30822,-18906
2025-10-11 16:12:35.624,-199,-820,618,24416,29160,-14694
2025-10-11 16:12:35.625,-200,-633,661,17641,22141,-15244
2025-10-11 16:12:35.673,-206,-533,766,8119,19699,-14328
2025-10-11 16:12:35.673,-159,-454,837,8180,17197,-8957
2025-10-11 16:12:35.674,-129,-272,844,-6041,19211,-13718
2025-10-11 16:12:35.721,-137,-57,859,16282,26352,-26596
2025-10-11 16:12:35.722,-146,64,921,28718,32516,27038
2025-10-11 16:12:35.789,-143,50,971,-13031,-29479,19409
2025-10-11 16:12:35.789,-128,-11,967,-31829,-26123,16906
2025-10-11 16:12:35.789,-127,-15,947,-32684,-22644,15380
2025-10-11 16:12:35.820,-130,9,945,-29388,-20324,14343
2025-10-11 16:12:35.820,-119,167,960,5936,-20751,8178
2025-10-11 16:12:35.871,-133,112,945,-10239,-17761,5676
2025-10-11 16:12:35.871,-104,23,988,1175,-18798,6225
2025-10-11 16:12:35.872,-103,124,975,12161,-22460,6408
2025-10-11 16:12:35.916,-88,295,933,-6454,-22521,2807
2025-10-11 16:12:35.917,-71,389,937,17395,-18188,1953
2025-10-11 16:12:35.965,-87,262,963,-15319,-13916,-3051
2025-10-11 16:12:35.966,-68,84,1024,-6347,-10864,976
2025-10-11 16:12:36.014,-62,102,1033,17333,-11962,2197
2025-10-11 16:12:36.015,-66,222,999,19470,-10437,305
2025-10-11 16:12:36.016,-66,313,990,-11840,-6164,-1953
2025-10-11 16:12:36.093,-64,189,1030,-21057,-5249,-1403
2025-10-11 16:12:36.093,-57,99,1043,-9277,-4394,732
2025-10-11 16:12:36.127,-58,132,1049,4760,-4638,1037
2025-10-11 16:12:36.127,-60,212,1040,4455,-5004,183
2025-10-11 16:12:36.127,-54,241,1038,-6652,-3662,-366
2025-10-11 16:12:36.168,-45,198,1039,-13366,-1464,-1098
2025-10-11 16:12:36.169,-47,168,1044,-13549,488,-488
2025-10-11 16:12:36.210,-55,131,1035,-7507,1525,305
2025-10-11 16:12:36.210,-51,127,1035,2014,1281,1892
2025-10-11 16:12:36.211,-48,176,1018,2685,1586,1281
2025-10-11 16:12:36.258,-53,204,1007,-5126,2136,793
2025-10-11 16:12:36.258,-60,179,1002,-9582,2441,244
2025-10-11 16:12:36.306,-60,148,1014,-9033,1525,244
2025-10-11 16:12:36.307,-57,144,1011,-4394,1403,0
2025-10-11 16:12:36.355,-65,157,1011,-2014,1770,427
2025-10-11 16:12:36.356,-65,164,1010,-2136,1403,-305
2025-10-11 16:12:36.357,-60,171,1008,-4760,1403,-732
2025-10-11 16:12:36.410,-62,160,1001,-8178,1708,-1098
2025-10-11 16:12:36.410,-61,141,1012,-9094,1342,-183
2025-10-11 16:12:36.456,-64,121,1016,-3723,610,610
2025-10-11 16:12:36.456,-66,145,1020,-793,732,732
2025-10-11 16:12:36.456,-63,165,1020,-2746,976,-122
2025-10-11 16:12:36.501,-66,161,1018,-5920,1770,-732
2025-10-11 16:12:36.502,-68,145,1018,-7446,2319,-732
2025-10-11 16:12:36.551,-70,131,1014,-7507,2563,-488
2025-10-11 16:12:36.551,-72,122,1016,-6530,1892,-366
2025-10-11 16:12:36.552,-73,114,1015,-4333,549,0
2025-10-11 16:12:36.599,-72,114,1013,-2014,244,0
2025-10-11 16:12:36.600,-70,134,1010,-1770,1220,244
2025-10-11 16:12:36.647,-69,130,1015,-4455,1647,-183
2025-10-11 16:12:36.648,-68,116,1014,-5065,1098,305
2025-10-11 16:12:36.710,-70,110,1006,-5249,976,854
2025-10-11 16:12:36.711,-65,98,1008,-2746,1464,1220
2025-10-11 16:12:36.711,-73,115,1011,-1342,1525,915
2025-10-11 16:12:36.746,-74,115,1011,-2075,732,427
2025-10-11 16:12:36.749,-71,118,1008,-2319,488,549
2025-10-11 16:12:36.795,-72,131,1003,-4577,793,-305
2025-10-11 16:12:36.796,-79,119,1007,-7080,610,-183
2025-10-11 16:12:36.796,-78,97,1016,-5432,-427,610
2025-10-11 16:12:36.843,-78,83,1019,732,-1037,732
2025-10-11 16:12:36.843,-72,120,1015,1831,-122,610
2025-10-11 16:12:36.891,-76,129,1017,-1342,366,-366
2025-10-11 16:12:36.892,-79,107,1025,-2380,-427,-427
2025-10-11 16:12:36.893,-74,94,1028,-61,-1342,-366
2025-10-11 16:12:36.940,-74,111,1024,854,-1220,-244
2025-10-11 16:12:36.941,-70,121,1030,-1220,-427,-61
2025-10-11 16:12:36.993,-70,114,1031,-2380,671,-671
2025-10-11 16:12:36.993,-69,105,1029,-1831,1464,-854
2025-10-11 16:12:37.038,-74,107,1027,-1525,1281,-549
2025-10-11 16:12:37.040,-72,106,1023,-2441,549,-671
2025-10-11 16:12:37.040,-68,91,1015,-2075,915,-305
2025-10-11 16:12:37.086,-70,90,1017,-1098,1281,244
2025-10-11 16:12:37.087,-74,93,1020,-427,915,854
2025-10-11 16:12:37.135,-71,93,1021,1220,610,1037
2025-10-11 16:12:37.136,-70,111,1013,976,549,122
2025-10-11 16:12:37.136,-74,124,1006,-1953,1098,-244
2025-10-11 16:12:37.184,-82,102,1008,-3540,915,-488
2025-10-11 16:12:37.185,-78,92,1015,-1586,-366,-610
2025-10-11 16:12:37.257,-78,105,1017,305,-1220,-915
2025-10-11 16:12:37.257,-79,114,1017,-1770,-183,-1770
2025-10-11 16:12:37.257,-73,92,1013,-1342,732,-1770
2025-10-11 16:12:37.283,-72,94,1014,-1342,671,-854
2025-10-11 16:12:37.283,-72,99,1013,-1647,305,-671
2025-10-11 16:12:37.331,-72,94,1018,-1525,-366,-854
2025-10-11 16:12:37.332,-79,96,1017,-1159,-854,-1464
2025-10-11 16:12:37.333,-79,90,1024,-793,-1281,-1220
2025-10-11 16:12:37.379,-72,95,1021,-854,-366,-1159
2025-10-11 16:12:37.380,-73,100,1017,-1831,1037,-1281
2025-10-11 16:12:37.428,-81,98,1016,-3173,1342,-976
2025-10-11 16:12:37.429,-81,88,1020,-3234,0,-1220
2025-10-11 16:12:37.477,-77,91,1011,-3723,0,-1953
2025-10-11 16:12:37.478,-80,81,1016,-3662,-427,-2014
2025-10-11 16:12:37.478,-76,68,1018,-1892,-1037,-1892
2025-10-11 16:12:37.540,-79,71,1018,-122,-1220,-1342
2025-10-11 16:12:37.540,-74,79,1019,610,-1098,-1342
2025-10-11 16:12:37.582,-75,84,1019,183,-732,-915
2025-10-11 16:12:37.582,-75,86,1018,-671,-488,-488
2025-10-11 16:12:37.582,-78,90,1019,-1403,-427,-549
2025-10-11 16:12:37.623,-78,99,1023,-2807,-427,-549
2025-10-11 16:12:37.623,-75,95,1032,-4821,-854,-1708
2025-10-11 16:12:37.672,-70,78,1028,-4394,244,-1953
2025-10-11 16:12:37.672,-74,73,1032,-4211,732,-2319
2025-10-11 16:12:37.673,-76,68,1029,-5004,183,-2380
2025-10-11 16:12:37.720,-73,59,1020,-5493,183,-2075
2025-10-11 16:12:37.721,-76,56,1019,-4516,427,-1281
2025-10-11 16:12:37.769,-81,58,1023,-3601,-61,-976
2025-10-11 16:12:37.769,-79,58,1024,-2319,-366,-976
2025-10-11 16:12:37.824,-72,66,1023,-2136,-366,-1525
2025-10-11 16:12:37.824,-79,72,1020,-3784,244,-1281
2025-10-11 16:12:37.824,-73,57,1024,-5187,915,-732
2025-10-11 16:12:37.867,-72,51,1025,-4516,976,-610
2025-10-11 16:12:37.867,-78,54,1024,-3601,610,-915
2025-10-11 16:12:37.915,-80,65,1023,-4150,183,-732
2025-10-11 16:12:37.916,-73,60,1023,-5493,366,-1159
2025-10-11 16:12:37.916,-74,50,1025,-5065,671,-1647
2025-10-11 16:12:37.964,-75,47,1020,-3906,366,-2014
2025-10-11 16:12:37.965,-79,68,1013,-5249,183,-2380
2025-10-11 16:12:38.013,-80,68,1016,-7934,244,-2563
2025-10-11 16:12:38.014,-85,42,1016,-7202,122,-3295
2025-10-11 16:12:38.015,-81,25,1018,-2746,-976,-3662
2025-10-11 16:12:38.061,-69,40,1014,-3112,-1220,-2868
2025-10-11 16:12:38.062,-74,28,1008,-5615,-549,-2624
2025-10-11 16:12:38.112,-84,13,1019,-5493,-915,-1098
2025-10-11 16:12:38.112,-79,-9,1030,-1281,-2380,-549
2025-10-11 16:12:38.112,-66,11,1020,2563,-2502,-488
2025-10-11 16:12:38.160,-65,35,1011,1525,-366,-122
2025-10-11 16:12:38.160,-73,33,1020,-610,549,732
2025-10-11 16:12:38.208,-80,24,1027,-732,-732,732
2025-10-11 16:12:38.208,-78,30,1026,976,-1586,732
2025-10-11 16:12:38.256,-69,41,1025,122,-793,-793
2025-10-11 16:12:38.257,-76,33,1024,-2319,-183,-671
2025-10-11 16:12:38.258,-80,17,1029,-2746,-610,-183
2025-10-11 16:12:38.305,-82,9,1031,-732,-915,488
2025-10-11 16:12:38.306,-77,27,1030,61,-915,1098
2025-10-11 16:12:38.354,-70,30,1031,-793,-122,854
2025-10-11 16:12:38.355,-76,31,1035,-1098,244,793
2025-10-11 16:12:38.356,-75,26,1036,-1098,122,915
2025-10-11 16:12:38.411,-66,23,1030,-366,671,854
2025-10-11 16:12:38.411,-69,29,1025,-366,793,610
2025-10-11 16:12:38.452,-75,30,1018,-793,671,732
2025-10-11 16:12:38.452,-74,34,1021,-244,122,0
2025-10-11 16:12:38.453,-72,35,1016,-61,0,-488
2025-10-11 16:12:38.500,-72,35,1016,-915,305,-732
2025-10-11 16:12:38.501,-73,14,1025,0,-366,-671
2025-10-11 16:12:38.550,-70,19,1021,1647,-427,-183
2025-10-11 16:12:38.550,-64,33,1015,610,427,-305
2025-10-11 16:12:38.551,-71,43,1012,-2746,1281,-671
2025-10-11 16:12:38.598,-79,19,1019,-3295,854,-1037
2025-10-11 16:12:38.599,-76,9,1024,-183,-610,-1159
2025-10-11 16:12:38.646,-73,21,1021,-671,-183,-1220
2025-10-11 16:12:38.647,-72,30,1024,-4455,1098,-793
2025-10-11 16:12:38.702,-78,16,1030,-6225,1098,-244
2025-10-11 16:12:38.702,-74,21,1030,-7873,1098,-305
2025-10-11 16:12:38.702,-70,33,1024,-12145,2685,-305
2025-10-11 16:12:38.745,-68,38,1022,-20385,4150,-610
2025-10-11 16:12:38.745,-68,40,1016,31540,4089,-427
2025-10-11 16:12:38.793,-63,33,992,9933,5249,122
2025-10-11 16:12:38.793,-74,8,995,-14603,7080,3051
2025-10-11 16:12:38.794,-88,-77,1025,-29251,7080,5371
2025-10-11 16:12:38.841,-78,-140,1034,-29434,9155,5004
2025-10-11 16:12:38.842,-73,-134,957,-30228,16357,4150
2025-10-11 16:12:38.890,-106,-130,929,25238,21057,2319
2025-10-11 16:12:38.891,-128,-114,926,2227,18188,-1953
2025-10-11 16:12:38.891,-130,-200,909,-19501,13183,-4394
2025-10-11 16:12:38.963,-103,-364,893,-20661,13000,-3845
2025-10-11 16:12:38.963,-105,-418,867,-11628,17211,-4699
2025-10-11 16:12:38.989,-115,-346,860,-24018,19348,-9643
2025-10-11 16:12:38.990,-103,-333,811,7277,21118,-16357
2025-10-11 16:12:39.037,-97,-468,736,-20310,25634,-17944
2025-10-11 16:12:39.038,-89,-642,690,-26475,-32150,-19348
2025-10-11 16:12:39.039,-125,-706,625,-31297,-30563,-24230
2025-10-11 16:12:39.085,-128,-735,560,21727,-32516,-29113
2025-10-11 16:12:39.085,-114,-786,461,8971,32714,-32287
2025-10-11 16:12:39.134,-104,-856,350,1891,-29465,-30212
2025-10-11 16:12:39.134,-67,-946,260,-1405,-24277,29648
2025-10-11 16:12:39.135,-81,-966,177,-5128,-21103,29221
2025-10-11 16:12:39.182,-70,-957,37,-734,-18051,-29785
2025-10-11 16:12:39.183,-83,-1098,-52,19286,-15610,-21484
2025-10-11 16:12:39.252,-94,-1123,-123,-15794,-18539,-21606
2025-10-11 16:12:39.252,-141,-1104,-148,-31891,28808,-20202
2025-10-11 16:12:39.252,-118,-1088,-214,1373,12695,-15075
2025-10-11 16:12:39.282,-72,-1057,-269,24505,-1281,-12817
2025-10-11 16:12:39.282,-27,-1024,-336,-22598,-3906,-11169
2025-10-11 16:12:39.329,-26,-1024,-351,-6729,-1098,-8239
2025-10-11 16:12:39.331,-27,-1032,-348,15244,793,-4394
2025-10-11 16:12:39.378,-57,-1022,-325,-26733,793,-2014
2025-10-11 16:12:39.378,-46,-976,-318,-11779,-1586,-3234
2025-10-11 16:12:39.379,-35,-914,-325,-9643,-2197,-3601
2025-10-11 16:12:39.426,-39,-946,-329,-8056,-183,-4760
2025-10-11 16:12:39.427,-28,-930,-318,-4943,2136,-3295
2025-10-11 16:12:39.476,-35,-984,-333,3967,4882,-2441
2025-10-11 16:12:39.476,-32,-960,-328,13122,5615,-854
2025-10-11 16:12:39.477,-26,-892,-338,7812,4699,-2014
2025-10-11 16:12:39.535,-11,-919,-346,2685,5187,-2868
2025-10-11 16:12:39.535,-30,-973,-343,7019,5065,-2014
2025-10-11 16:12:39.580,-26,-996,-337,18798,4028,-183
2025-10-11 16:12:39.580,-27,-963,-339,27954,2624,2441
2025-10-11 16:12:39.580,-34,-908,-321,22399,-122,1831
2025-10-11 16:12:39.621,-32,-900,-306,8422,-2990,-1464
2025-10-11 16:12:39.622,-14,-930,-308,3967,-793,183
2025-10-11 16:12:39.671,-27,-1001,-309,16845,2685,2136
2025-10-11 16:12:39.671,-39,-975,-286,29724,3112,4028
2025-10-11 16:12:39.672,-39,-883,-284,24108,549,1953
2025-10-11 16:12:39.719,-24,-905,-287,10437,671,-1770
2025-10-11 16:12:39.719,-30,-964,-285,9155,2685,-1342
2025-10-11 16:12:39.767,-28,-1024,-280,23559,4272,2563
2025-10-11 16:12:39.768,-40,-1014,-263,-25986,4333,5432
2025-10-11 16:12:39.819,-33,-939,-255,-24460,2624,5004
2025-10-11 16:12:39.820,-27,-921,-248,30090,1159,3112
2025-10-11 16:12:39.820,-30,-932,-240,15319,915,1159
2025-10-11 16:12:39.868,-30,-1041,-239,25146,3173,3967
2025-10-11 16:12:39.869,-49,-1097,-221,-13901,4455,8117
2025-10-11 16:12:39.914,-64,-1083,-194,13992,2441,12695
2025-10-11 16:12:39.914,-54,-1087,-180,-24261,1220,17150
2025-10-11 16:12:39.915,-65,-1076,-119,-4486,-1586,18676
2025-10-11 16:12:39.963,-74,-1079,-60,13642,-6469,22705
2025-10-11 16:12:39.963,-96,-827,3,-18524,-15441,15869
2025-10-11 16:12:40.011,-58,-874,39,7828,-15930,9765
2025-10-11 16:12:40.012,-50,-1058,95,5692,-9094,12451
2025-10-11 16:12:40.012,-72,-1217,110,30060,3784,30517
2025-10-11 16:12:40.060,-148,-1319,187,-17088,3967,-23056
2025-10-11 16:12:40.061,-189,-946,256,2931,-9948,-27267
2025-10-11 16:12:40.109,-186,-680,333,25193,-24291,23071
2025-10-11 16:12:40.110,-107,-638,388,26032,-23803,11657
2025-10-11 16:12:40.158,-57,-871,446,11994,-12084,14343
2025-10-11 16:12:40.160,-125,-1137,494,4746,-1831,31616
2025-10-11 16:12:40.160,-232,-1311,593,-19880,-7995,-11398
2025-10-11 16:12:40.206,-205,-1030,576,5282,-27038,1663
2025-10-11 16:12:40.207,-200,-639,544,26461,22202,6546
2025-10-11 16:12:40.256,-147,-332,578,-24198,19211,-3098
2025-10-11 16:12:40.256,-130,-133,792,-8284,15976,-14206
2025-10-11 16:12:40.257,-100,52,869,1772,12314,-29343
2025-10-11 16:12:40.304,-69,227,811,-136,22812,23742
2025-10-11 16:12:40.304,-135,204,867,8576,-29602,19165
2025-10-11 16:12:40.353,-92,62,990,-13763,-29113,16540
2025-10-11 16:12:40.354,-82,95,961,-19195,-29357,14526
2025-10-11 16:12:40.354,-62,263,913,22171,-23315,11840
2025-10-11 16:12:40.409,-57,369,885,-24826,-14343,2746
2025-10-11 16:12:40.409,-120,223,935,7385,-7812,1831
2025-10-11 16:12:40.451,-80,91,1020,13244,-13244,3784
2025-10-11 16:12:40.451,-70,215,956,8544,-11413,4028
2025-10-11 16:12:40.452,-80,279,945,-10803,-6713,1464
2025-10-11 16:12:40.499,-96,238,988,-30456,-4882,427
2025-10-11 16:12:40.500,-96,148,1016,30075,-7202,-61
2025-10-11 16:12:40.548,-84,47,1040,-17639,-8361,4455
2025-10-11 16:12:40.548,-59,97,1050,2685,-9826,4577
2025-10-11 16:12:40.596,-56,191,1031,4455,-7934,915
2025-10-11 16:12:40.597,-57,252,1020,-9460,-4150,122
2025-10-11 16:12:40.598,-55,190,1029,-20202,-1708,-305
2025-10-11 16:12:40.667,-51,135,1049,-15014,-3479,1403
2025-10-11 16:12:40.667,-40,67,1055,1098,-4394,3601
2025-10-11 16:12:40.694,-45,163,1025,8239,-3601,3234
2025-10-11 16:12:40.695,-47,194,1025,2319,-1220,3356
2025-10-11 16:12:40.695,-43,198,1024,-6103,-488,366
2025-10-11 16:12:40.743,-48,172,1014,-11230,183,1037
2025-10-11 16:12:40.743,-59,138,1021,-10437,-1098,793
2025-10-11 16:12:40.791,-52,120,1030,-5798,-2685,976
2025-10-11 16:12:40.792,-46,145,1028,-3601,-3234,1220
2025-10-11 16:12:40.793,-34,156,1024,-6408,-1220,427
2025-10-11 16:12:40.841,-34,164,1019,-13610,2807,-61
2025-10-11 16:12:40.841,-52,100,1032,-12023,2502,549
2025-10-11 16:12:40.889,-51,98,1023,-5981,549,671
2025-10-11 16:12:40.890,-54,108,1019,-2929,-854,1098
2025-10-11 16:12:40.891,-50,113,1028,-793,-1831,732
2025-10-11 16:12:40.951,-54,133,1027,-1831,-2563,915
2025-10-11 16:12:40.951,-49,137,1022,-5920,-2380,305
2025-10-11 16:12:40.993,-50,121,1021,-7934,366,-183
2025-10-11 16:12:40.993,-55,93,1035,-6835,1464,244
2025-10-11 16:12:41.035,-56,85,1036,-1770,1831,1220
2025-10-11 16:12:41.035,-54,105,1029,0,2441,1586
2025-10-11 16:12:41.036,-55,111,1023,-2197,3234,1525
2025-10-11 16:12:41.084,-56,109,1025,-4760,2502,915
2025-10-11 16:12:41.084,-57,107,1015,-7324,2258,793
2025-10-11 16:12:41.133,-57,86,1012,-7324,2136,793
2025-10-11 16:12:41.133,-54,77,1014,-2990,2075,1708
2025-10-11 16:12:41.134,-55,88,1011,-305,2014,1770
2025-10-11 16:12:41.181,-60,108,1009,-1159,1647,1342
2025-10-11 16:12:41.182,-60,99,1012,-2380,1525,976
2025-10-11 16:12:41.260,-57,98,1009,-2929,1342,1098
2025-10-11 16:12:41.260,-55,88,1006,-1403,1464,1831
2025-10-11 16:12:41.260,-50,91,1008,1220,732,1953
2025-10-11 16:12:41.291,-62,114,1005,0,-61,1220
2025-10-11 16:12:41.291,-58,114,1013,-1708,-1098,549
2025-10-11 16:12:41.330,-57,103,1014,-2197,-1220,-366
2025-10-11 16:12:41.331,-57,95,1025,-610,-793,-427
2025-10-11 16:12:41.376,-60,95,1025,1464,0,-793
2025-10-11 16:12:41.377,-64,105,1030,1159,-244,-610
2025-10-11 16:12:41.378,-59,98,1031,305,-976,-610
2025-10-11 16:12:41.425,-59,96,1027,1037,-915,-915
2025-10-11 16:12:41.425,-54,96,1027,488,671,-1098
2025-10-11 16:12:41.474,-56,91,1018,-1342,732,-1525
2025-10-11 16:12:41.475,-55,75,1016,-1159,-61,-976
2025-10-11 16:12:41.475,-61,77,1020,0,-1342,-183
2025-10-11 16:12:41.523,-60,88,1023,1525,-1647,183
2025-10-11 16:12:41.523,-59,98,1023,1708,-793,-488
2025-10-11 16:12:41.579,-57,96,1021,610,915,-671
2025-10-11 16:12:41.579,-63,86,1030,61,1464,-671
2025-10-11 16:12:41.579,-60,84,1031,1159,488,-427
2025-10-11 16:12:41.622,-60,95,1021,305,-244,-1159
2025-10-11 16:12:41.623,-57,76,1017,305,-61,305
2025-10-11 16:12:41.669,-55,80,1014,488,305,854
2025-10-11 16:12:41.670,-58,80,1020,976,427,1098
2025-10-11 16:12:41.718,-58,90,1018,1403,-122,915
2025-10-11 16:12:41.719,-63,98,1018,915,-61,122
2025-10-11 16:12:41.719,-57,99,1017,122,61,-61
2025-10-11 16:12:41.766,-66,96,1016,-793,671,-61
2025-10-11 16:12:41.767,-60,84,1026,-61,366,61
2025-10-11 16:12:41.836,-61,96,1021,610,122,61
2025-10-11 16:12:41.836,-60,100,1019,-305,-61,0
2025-10-11 16:12:41.837,-59,92,1021,183,305,-305
2025-10-11 16:12:41.867,-56,90,1023,854,671,-305
2025-10-11 16:12:41.867,-56,96,1018,122,610,-244
2025-10-11 16:12:41.913,-56,97,1012,-1403,549,-244
2025-10-11 16:12:41.915,-61,90,1013,-1525,305,-671
2025-10-11 16:12:41.915,-63,83,1017,1220,-488,-610
2025-10-11 16:12:41.961,-63,96,1019,2441,-1281,-1037
2025-10-11 16:12:41.962,-61,103,1016,305,-1098,-1037
2025-10-11 16:12:42.010,-62,97,1019,-2014,-549,-610
2025-10-11 16:12:42.011,-65,84,1024,-1220,-488,-488
2025-10-11 16:12:42.012,-57,92,1026,1098,-488,-1220
2025-10-11 16:12:42.059,-58,103,1024,-488,-305,-1892
2025-10-11 16:12:42.061,-65,91,1025,-976,-610,-1525
2025-10-11 16:12:42.119,-56,80,1030,-427,-793,-1220
2025-10-11 16:12:42.119,-49,89,1027,-366,-122,-1586
2025-10-11 16:12:42.160,-58,92,1022,-1892,732,-1403
2025-10-11 16:12:42.160,-61,71,1027,-1159,549,-793
2025-10-11 16:12:42.160,-59,72,1024,793,0,-1037
2025-10-11 16:12:42.206,-59,87,1024,793,-305,-244
2025-10-11 16:12:42.206,-63,80,1022,305,-366,-793
2025-10-11 16:12:42.254,-63,88,1016,61,549,-183
2025-10-11 16:12:42.255,-62,86,1016,61,976,-671
2025-10-11 16:12:42.256,-65,81,1016,-183,-61,-976
2025-10-11 16:12:42.303,-65,75,1013,671,-1098,-183
2025-10-11 16:12:42.303,-56,88,1004,305,-732,-610
2025-10-11 16:12:42.351,-55,85,1005,-732,305,-1037
2025-10-11 16:12:42.352,-65,85,1013,-793,-793,-793
2025-10-11 16:12:42.353,-63,75,1015,-427,-1953,-183
2025-10-11 16:12:42.404,-56,72,1020,2014,-1892,-427
2025-10-11 16:12:42.404,-62,79,1031,2746,-1953,0
2025-10-11 16:12:42.449,-64,84,1044,2136,-2929,0
2025-10-11 16:12:42.450,-50,101,1043,793,-1281,-122
2025-10-11 16:12:42.498,-47,101,1033,-1342,1342,-1281
2025-10-11 16:12:42.499,-52,83,1032,-2014,2319,-1647
2025-10-11 16:12:42.499,-59,74,1018,-1770,1647,-1403
2025-10-11 16:12:42.546,-56,74,1014,-1586,488,-610
2025-10-11 16:12:42.547,-62,79,1012,-1281,-366,0
2025-10-11 16:12:42.595,-55,79,1012,-549,-305,-244
2025-10-11 16:12:42.596,-60,87,1007,-244,610,-366
2025-10-11 16:12:42.597,-64,83,1018,-61,305,-427
2025-10-11 16:12:42.644,-63,92,1018,-1037,-1342,-549
2025-10-11 16:12:42.645,-59,100,1024,-3845,-1220,-366
2025-10-11 16:12:42.695,-46,80,1033,-3173,-122,-671
2025-10-11 16:12:42.696,-47,86,1027,-2136,1159,-1586
2025-10-11 16:12:42.696,-63,68,1033,-1403,976,-1708
2025-10-11 16:12:42.743,-60,63,1039,854,-915,-1159
2025-10-11 16:12:42.745,-50,73,1037,1525,-1159,-427
2025-10-11 16:12:42.790,-44,80,1034,-122,671,-366
2025-10-11 16:12:42.791,-53,80,1035,-2075,2502,-305
2025-10-11 16:12:42.792,-58,64,1031,-2014,2868,-305
2025-10-11 16:12:42.839,-66,56,1030,1647,1281,-488
2025-10-11 16:12:42.840,-63,77,1015,1220,732,-610
2025-10-11 16:12:42.888,-62,73,1011,-305,1098,-488
2025-10-11 16:12:42.888,-67,65,1016,305,1098,305
2025-10-11 16:12:42.936,-64,71,1014,1037,732,-366
2025-10-11 16:12:42.937,-64,78,1003,-244,1098,-671
2025-10-11 16:12:42.938,-66,60,1002,-1037,732,-61
2025-10-11 16:12:42.990,-62,55,1002,244,-183,610
2025-10-11 16:12:42.990,-64,77,999,-427,-305,854
2025-10-11 16:12:43.035,-65,73,1010,-1342,-305,122
2025-10-11 16:12:43.036,-68,69,1007,610,-610,-122
2025-10-11 16:12:43.037,-63,86,1007,-610,-793,488
2025-10-11 16:12:43.083,-65,69,1020,-2075,-1281,488
2025-10-11 16:12:43.083,-64,73,1024,-1281,-1403,732
2025-10-11 16:12:43.131,-65,64,1029,-366,-1098,-122
2025-10-11 16:12:43.132,-63,78,1028,-305,-854,122
2025-10-11 16:12:43.133,-61,78,1029,-2563,-61,732
2025-10-11 16:12:43.180,-56,81,1035,-5126,1342,1586
2025-10-11 16:12:43.181,-54,68,1037,-5981,2563,915
2025-10-11 16:12:43.229,-58,71,1032,-6225,2319,183
2025-10-11 16:12:43.256,-61,81,1027,-12268,2014,-183
2025-10-11 16:12:43.279,-52,111,1013,-21423,4150,-61
2025-10-11 16:12:43.283,-57,125,1014,29465,6408,-2258
2025-10-11 16:12:43.283,-67,104,1013,12558,7080,-3479
2025-10-11 16:12:43.328,-70,59,1017,-809,7385,-4516
2025-10-11 16:12:43.330,-60,39,1007,-13443,9094,-5432
2025-10-11 16:12:43.377,-51,101,984,22003,13305,-8361
2025-10-11 16:12:43.377,-40,104,946,-25971,18432,-10559
2025-10-11 16:12:43.378,-52,8,896,-13841,23010,-14831
2025-10-11 16:12:43.424,-84,-232,874,25023,23437,-13793
2025-10-11 16:12:43.425,-78,-461,833,-30686,22888,-13488
2025-10-11 16:12:43.546,-93,-356,744,14586,20568,-17822
2025-10-11 16:12:43.546,-106,-372,657,31843,19409,-23376
2025-10-11 16:12:43.546,-98,-556,564,-4046,18920,-19897
2025-10-11 16:12:43.546,-91,-805,483,-4412,22216,-14038
2025-10-11 16:12:43.575,-108,-1017,434,32637,28076,-7629
2025-10-11 16:12:43.575,-129,-1035,410,6773,30700,-9277
2025-10-11 16:12:43.575,-149,-926,372,23497,27404,-16296
2025-10-11 16:12:43.575,-114,-850,280,16783,21362,-23925
2025-10-11 16:12:43.620,-78,-968,161,21117,20263,-20874
2025-10-11 16:12:43.621,-55,-1096,47,7583,29663,-13183
2025-10-11 16:12:43.668,-99,-1238,19,-3754,32409,-8300
2025-10-11 16:12:43.668,-122,-1114,21,31646,24658,-10253
2025-10-11 16:12:43.716,-99,-998,-12,-19791,13122,-10253
2025-10-11 16:12:43.717,-93,-951,-57,-24551,1586,-12878
2025-10-11 16:12:43.719,-64,-1073,-109,-12833,305,-6774
2025-10-11 16:12:43.765,-43,-1203,-137,17380,5187,-4211
2025-10-11 16:12:43.767,-56,-1137,-113,-22338,8117,-2807
2025-10-11 16:12:43.835,-69,-979,-122,-16113,6408,-2014
2025-10-11 16:12:43.835,-51,-956,-123,-20629,3479,-1220
2025-10-11 16:12:43.835,-40,-978,-141,-28320,2624,-4394
2025-10-11 16:12:43.865,-49,-1002,-156,-25695,4516,-4516
2025-10-11 16:12:43.865,-48,-1019,-162,-14343,6591,-2868
2025-10-11 16:12:43.913,-52,-1002,-175,-3784,8300,-2929
2025-10-11 16:12:43.913,-50,-942,-177,-5432,7141,-4211
2025-10-11 16:12:43.914,-49,-921,-189,-17272,4211,-7446
2025-10-11 16:12:43.961,-37,-997,-201,-15197,2990,-3479
2025-10-11 16:12:43.962,-57,-1078,-194,4699,2502,671
2025-10-11 16:12:44.009,-58,-1031,-187,21423,793,488
2025-10-11 16:12:44.010,-56,-945,-178,21850,-2441,122
2025-10-11 16:12:44.011,-48,-952,-184,12939,-1342,-1037
2025-10-11 16:12:44.058,-52,-1033,-171,16784,244,488
2025-10-11 16:12:44.058,-61,-1027,-156,24597,-122,2807
2025-10-11 16:12:44.119,-58,-987,-154,24353,-2258,2807
2025-10-11 16:12:44.119,-41,-994,-156,23620,-2258,1220
2025-10-11 16:12:44.161,-42,-1023,-150,30761,-1037,2685
2025-10-11 16:12:44.161,-55,-1042,-129,-23117,-122,4699
2025-10-11 16:12:44.161,-47,-1001,-118,-15549,305,5981
2025-10-11 16:12:44.204,-46,-958,-119,-18295,610,5493
2025-10-11 16:12:44.204,-43,-1005,-119,-17197,2136,6835
2025-10-11 16:12:44.253,-58,-1059,-92,13992,3295,13305
2025-10-11 16:12:44.253,-78,-1153,-57,-13763,1892,22155
2025-10-11 16:12:44.254,-125,-955,10,-16754,-8666,16723
2025-10-11 16:12:44.301,-96,-914,50,30167,-16723,12878
2025-10-11 16:12:44.302,-96,-1110,84,-17852,-16052,17578
2025-10-11 16:12:44.350,-108,-1412,166,1634,-12390,-25497
2025-10-11 16:12:44.351,-119,-1404,174,-26838,-12573,-10605
2025-10-11 16:12:44.351,-192,-912,304,-13777,-29418,-21408
2025-10-11 16:12:44.404,-219,-638,416,10133,21469,32592
2025-10-11 16:12:44.405,-169,-635,526,30564,18112,29296
2025-10-11 16:12:44.452,-140,-811,629,-24840,23544,-28366
2025-10-11 16:12:44.452,-144,-881,717,17152,23361,-26657
2025-10-11 16:12:44.452,-157,-732,724,-9077,17075,-26779
2025-10-11 16:12:44.497,-193,-608,708,17901,7858,-29099
2025-10-11 16:12:44.498,-163,-502,765,-27738,-10330,-29892
2025-10-11 16:12:44.546,-62,-312,765,-18827,-29190,30883
2025-10-11 16:12:44.547,-10,7,772,20952,-29617,27099
2025-10-11 16:12:44.594,81,328,820,25880,-13748,15075
2025-10-11 16:12:44.595,89,553,850,10850,14755,4699
2025-10-11 16:12:44.595,122,655,884,-12664,-22583,-244
2025-10-11 16:12:44.643,71,546,935,20019,3417,244
2025-10-11 16:12:44.643,33,281,968,-3601,7995,671
2025-10-11 16:12:44.698,-9,185,957,-6713,5920,-976
2025-10-11 16:12:44.698,-20,171,966,-2868,-1281,-2990
2025-10-11 16:12:44.698,-46,217,944,-4089,-6347,-6042
2025-10-11 16:12:44.743,-35,197,941,-8178,-6835,-5249
2025-10-11 16:12:44.743,-29,151,964,-5310,-5798,-4089
2025-10-11 16:12:44.789,-13,122,994,2929,-5737,-2746
2025-10-11 16:12:44.790,2,170,1002,8117,-6225,-1464
2025-10-11 16:12:44.838,14,236,992,2014,-5065,-732
2025-10-11 16:12:44.838,12,245,1006,-11230,-2685,1403
2025-10-11 16:12:44.839,17,200,1030,-11352,-1892,3112
2025-10-11 16:12:44.886,24,224,1027,-9338,-976,2197
2025-10-11 16:12:44.887,16,238,1003,-11108,1647,-793
2025-10-11 16:12:44.935,-4,203,1014,-10742,1525,-1831
2025-10-11 16:12:44.936,-12,158,1023,-2746,-1403,-1342
2025-10-11 16:12:44.936,14,190,1014,2624,-2990,-488
2025-10-11 16:12:44.993,22,225,1008,-1953,-1586,61
2025-10-11 16:12:44.993,16,223,1009,-8422,671,61
2025-10-11 16:12:45.034,13,187,1025,-9765,1037,244
2025-10-11 16:12:45.035,14,132,1029,8666,-305,1159
2025-10-11 16:12:45.037,24,198,1020,16906,-1098,-61
2025-10-11 16:12:45.082,21,256,1001,10925,-488,-2258
2025-10-11 16:12:45.082,19,278,993,-5249,488,-2746
2025-10-11 16:12:45.131,13,227,994,-19287,1586,-2380
2025-10-11 16:12:45.131,18,171,1018,-22094,915,-1525
2025-10-11 16:12:45.132,10,108,1025,-10559,305,-305
2025-10-11 16:12:45.179,14,160,1018,1770,1159,549
2025-10-11 16:12:45.180,1,223,1003,732,2746,-671
2025-10-11 16:12:45.228,9,215,1009,-5737,2685,-2563
2025-10-11 16:12:45.228,0,193,1014,-10253,122,-1892
2025-10-11 16:12:45.279,7,169,1012,-10375,-427,-976
2025-10-11 16:12:45.279,4,179,1014,-11169,366,-1098
2025-10-11 16:12:45.279,10,141,1020,-7934,1464,-915
2025-10-11 16:12:45.326,5,143,1016,-1037,2502,-732
2025-10-11 16:12:45.326,-1,169,1005,-305,2624,-1220
2025-10-11 16:12:45.374,-6,169,1004,-3356,1586,-1037
2025-10-11 16:12:45.375,-16,157,1010,-3967,-305,-732
2025-10-11 16:12:45.375,-1,151,1026,-2197,-1892,-366
2025-10-11 16:12:45.423,6,164,1014,-1708,-915,-976
2025-10-11 16:12:45.423,5,161,1009,-4455,2380,-1037
2025-10-11 16:12:45.471,0,147,1018,-5493,2136,-1037
2025-10-11 16:12:45.472,0,138,1014,-5676,1281,-671
2025-10-11 16:12:45.473,-1,133,1012,-4699,671,305
2025-10-11 16:12:45.546,1,134,1013,-3845,366,488
2025-10-11 16:12:45.546,6,142,1016,-3723,-61,-61
2025-10-11 16:12:45.573,3,146,1007,-4699,488,-244
2025-10-11 16:12:45.573,-3,140,1013,-5004,732,1098
2025-10-11 16:12:45.573,-3,141,1020,-4394,549,1037
2025-10-11 16:12:45.619,9,154,1019,-5432,854,793
2025-10-11 16:12:45.620,-4,146,1017,-5004,1403,-244
2025-10-11 16:12:45.667,-4,127,1029,-2258,305,-732
2025-10-11 16:12:45.667,7,140,1022,-1953,-122,-1159
2025-10-11 16:12:45.715,0,140,1016,-3601,915,-427
2025-10-11 16:12:45.716,-3,137,1020,-5249,915,-122
2025-10-11 16:12:45.716,0,133,1015,-5249,1525,244
2025-10-11 16:12:45.764,0,130,1018,-3784,1281,0
2025-10-11 16:12:45.765,-3,132,1009,-2563,915,-610
2025-10-11 16:12:45.835,-1,136,1018,-1831,-122,-671
2025-10-11 16:12:45.835,1,143,1019,-2563,-427,-1037
2025-10-11 16:12:45.835,-1,139,1022,-3784,183,-1831
2025-10-11 16:12:45.864,3,115,1024,-2502,366,-1647
2025-10-11 16:12:45.864,-2,130,1017,-3234,1464,-732
2025-10-11 16:12:45.911,-2,112,1021,-2990,1831,-1037
2025-10-11 16:12:45.911,-10,113,1017,-610,1525,-1892
2025-10-11 16:12:45.913,-16,119,1013,-549,366,-2990
2025-10-11 16:12:45.959,-12,118,1014,-3295,-915,-2990
2025-10-11 16:12:45.960,-10,99,1016,-4760,-488,-1586
2025-10-11 16:12:46.008,-7,79,1032,-2014,-61,-549
2025-10-11 16:12:46.009,-2,93,1036,1525,-61,-305
2025-10-11 16:12:46.057,-6,123,1030,-427,183,-366
2025-10-11 16:12:46.058,-3,121,1036,-2685,-122,-732
2025-10-11 16:12:46.058,0,106,1033,-1770,427,-854
2025-10-11 16:12:46.121,2,100,1034,0,915,-671
2025-10-11 16:12:46.121,-3,109,1029,-1159,1159,-305
2025-10-11 16:12:46.165,-5,102,1026,-1647,1220,61
2025-10-11 16:12:46.165,-10,97,1023,610,976,-122
2025-10-11 16:12:46.165,-8,117,1014,976,854,-854
2025-10-11 16:12:46.204,-11,115,1010,-1586,732,-1159
2025-10-11 16:12:46.205,-11,99,1011,-2807,732,-244
2025-10-11 16:12:46.252,-11,90,1014,0,1037,-183
2025-10-11 16:12:46.253,-12,102,1011,1098,549,-732
2025-10-11 16:12:46.253,-12,106,1015,793,-732,-1464
2025-10-11 16:12:46.301,-11,106,1016,793,-1159,-1159
2025-10-11 16:12:46.301,-7,109,1021,61,-976,-915
2025-10-11 16:12:46.351,-3,109,1018,-1403,-122,-1098
2025-10-11 16:12:46.351,-7,101,1023,-1770,732,-549
2025-10-11 16:12:46.352,-11,95,1032,-183,122,-122
2025-10-11 16:12:46.427,-7,108,1034,1159,-976,-244
2025-10-11 16:12:46.427,-3,117,1031,793,-976,-427
2025-10-11 16:12:46.460,-1,118,1028,-427,1708,-488
2025-10-11 16:12:46.460,-10,108,1034,-1647,1953,-366
2025-10-11 16:12:46.503,-12,97,1033,122,1037,-793
2025-10-11 16:12:46.503,-13,109,1029,1220,122,-915
2025-10-11 16:12:46.503,-14,115,1021,183,793,-854
2025-10-11 16:12:46.593,-6,116,1022,-671,2014,-793
2025-10-11 16:12:46.594,-8,94,1022,854,1770,-1403
2025-10-11 16:12:46.595,-10,106,1017,1647,366,-1098
2025-10-11 16:12:46.595,-14,103,1010,122,-122,-854
2025-10-11 16:12:46.642,-8,101,1018,0,183,-122
2025-10-11 16:12:46.643,-8,103,1024,1464,1403,-793
2025-10-11 16:12:46.643,-16,115,1021,915,1159,-1586
2025-10-11 16:12:46.691,-16,110,1012,-915,854,-1220
2025-10-11 16:12:46.691,-19,98,1014,-1098,427,-610
2025-10-11 16:12:46.692,-14,94,1015,549,-61,-549
2025-10-11 16:12:46.743,-15,109,1015,549,-122,-671
2025-10-11 16:12:46.743,-19,111,1011,-488,122,-1464
2025-10-11 16:12:46.791,-16,93,1015,1220,61,-1098
2025-10-11 16:12:46.791,-20,101,1012,2685,-671,-1342
2025-10-11 16:12:46.836,-14,110,1014,1464,-1037,-793
2025-10-11 16:12:46.837,-14,116,1012,-2380,-549,-1037
2025-10-11 16:12:46.838,-12,98,1015,-2075,-244,-1220
2025-10-11 16:12:46.885,-14,96,1012,-1159,-366,-1403
2025-10-11 16:12:46.886,-14,97,1013,-1525,-671,-1159
2025-10-11 16:12:46.934,-14,88,1020,-183,-915,-610
2025-10-11 16:12:46.935,-13,104,1017,671,-1098,-549
2025-10-11 16:12:46.935,-12,116,1018,-1464,-671,-610
2025-10-11 16:12:46.983,-11,99,1019,-2685,-366,-671
2025-10-11 16:12:46.983,-15,90,1024,-1403,-671,-305
2025-10-11 16:12:47.033,-15,101,1021,-244,-1342,-610
2025-10-11 16:12:47.033,-15,117,1020,-915,-1770,-1586
2025-10-11 16:12:47.033,-6,102,1030,-427,-1525,-2258
2025-10-11 16:12:47.081,-8,103,1035,-915,-1098,-2380
2025-10-11 16:12:47.081,-5,83,1041,-1159,-1037,-1586
2025-10-11 16:12:47.129,-5,88,1038,-793,-305,-488
2025-10-11 16:12:47.130,-5,104,1034,-2258,1220,-305
2025-10-11 16:12:47.178,-5,116,1033,-6042,2563,-305
2025-10-11 16:12:47.178,-12,114,1032,-11108,2441,-1403
2025-10-11 16:12:47.179,-7,123,1020,-20385,2258,-976
2025-10-11 16:12:47.226,-1,183,1022,17380,2502,-1342
2025-10-11 16:12:47.227,11,157,1029,32196,5432,488
2025-10-11 16:12:47.275,4,24,1010,14495,10375,2441
2025-10-11 16:12:47.276,-6,-5,994,2349,14709,1770
2025-10-11 16:12:47.277,-31,-13,977,-14924,16418,-671
2025-10-11 16:12:47.330,-29,-21,967,20705,15686,-2136
2025-10-11 16:12:47.330,-23,-74,912,-14756,16235,-2868
2025-10-11 16:12:47.374,-17,-223,849,24596,19348,-915
2025-10-11 16:12:47.375,-47,-430,829,21910,20935,610
2025-10-11 16:12:47.375,-55,-537,810,31126,20690,305
2025-10-11 16:12:47.422,-50,-521,742,29784,21545,-2014
2025-10-11 16:12:47.423,-46,-512,638,-1955,24658,-5493
2025-10-11 16:12:47.470,-71,-718,553,-14162,23315,-3662
2025-10-11 16:12:47.471,-49,-785,470,-23317,22888,-4211
2025-10-11 16:12:47.471,-61,-849,356,-20143,26977,2380
2025-10-11 16:12:47.519,-90,-1008,291,-2687,31311,4638
2025-10-11 16:12:47.519,-95,-1046,264,12144,31677,-915
2025-10-11 16:12:47.568,-106,-983,187,17210,29602,-4150
2025-10-11 16:12:47.568,-98,-899,90,6468,25207,-7141
2025-10-11 16:12:47.620,-83,-939,-44,-734,26367,-732
2025-10-11 16:12:47.620,-67,-981,-164,2074,31433,2014
2025-10-11 16:12:47.620,-64,-1064,-252,-29771,-24277,10864
2025-10-11 16:12:47.714,-109,-979,-343,-1023,-22263,13610
2025-10-11 16:12:47.714,-119,-1099,-358,-20051,-24399,13916
2025-10-11 16:12:47.715,-125,-1108,-370,-30594,-29709,8544
2025-10-11 16:12:47.716,-114,-1081,-377,18356,26977,305
2025-10-11 16:12:47.763,-88,-1040,-396,-2380,19348,-5249
2025-10-11 16:12:47.763,-68,-995,-411,28991,12817,-8117
2025-10-11 16:12:47.764,-44,-958,-409,-22873,7812,-8911
2025-10-11 16:12:47.811,-50,-939,-389,-21286,4272,-8911
2025-10-11 16:12:47.812,-43,-930,-361,-26901,793,-6347
2025-10-11 16:12:47.813,-34,-919,-346,17211,-1342,-4394
2025-10-11 16:12:47.877,-31,-948,-345,11413,1586,-1647
2025-10-11 16:12:47.877,-37,-1006,-350,20080,5371,1403
2025-10-11 16:12:47.909,-61,-953,-343,24108,5981,1770
2025-10-11 16:12:47.919,-54,-888,-338,14892,2746,610
2025-10-11 16:12:47.959,-48,-941,-340,7385,488,-1098
2025-10-11 16:12:47.959,-29,-961,-353,9460,1770,-244
2025-10-11 16:12:47.960,-42,-962,-351,16784,3540,1525
2025-10-11 16:12:48.007,-63,-917,-326,17700,2441,793
2025-10-11 16:12:48.008,-51,-897,-330,12512,976,-610
2025-10-11 16:12:48.104,-57,-908,-333,1098,1098,-2075
2025-10-11 16:12:48.104,-54,-955,-335,2197,2380,-305
2025-10-11 16:12:48.105,-55,-972,-336,10742,2746,1770
2025-10-11 16:12:48.106,-59,-975,-340,20629,2075,2502
2025-10-11 16:12:48.160,-77,-1004,-341,32348,732,2136
2025-10-11 16:12:48.161,-63,-992,-331,-23544,-2624,2868
2025-10-11 16:12:48.161,-61,-1036,-322,-5295,-5981,6835
2025-10-11 16:12:48.161,-57,-1196,-291,-21575,-7080,16235
2025-10-11 16:12:48.206,-63,-1371,-233,718,-10925,27099
2025-10-11 16:12:48.206,-102,-1347,-156,20631,-24658,32714
2025-10-11 16:12:48.250,-133,-1177,-106,31389,15244,-22751
2025-10-11 16:12:48.251,-121,-1092,-9,-8024,7980,-23666
2025-10-11 16:12:48.252,-137,-1009,131,4733,2975,-24460
2025-10-11 16:12:48.299,-162,-904,308,5465,-3189,-26474
2025-10-11 16:12:48.300,-132,-715,461,-12784,-8255,-27512
2025-10-11 16:12:48.396,-97,-443,522,4473,-2884,-29587
2025-10-11 16:12:48.397,-100,-304,621,9950,10727,27709
2025-10-11 16:12:48.398,-128,-401,802,-22459,16403,21545
2025-10-11 16:12:48.398,-92,-452,877,-22520,13657,14099
2025-10-11 16:12:48.448,-87,-385,824,-6957,12375,9582
2025-10-11 16:12:48.448,-81,-208,799,-426,12192,5432
2025-10-11 16:12:48.448,-35,-27,926,-6285,3403,2624
2025-10-11 16:12:48.494,48,151,870,-30272,2426,-4516
2025-10-11 16:12:48.496,43,299,870,-7522,13901,-15686
2025-10-11 16:12:48.496,88,308,1024,27375,20554,-17883
2025-10-11 16:12:48.543,99,395,989,-3692,30991,-19287
2025-10-11 16:12:48.544,137,574,886,4593,-12023,-21118
2025-10-11 16:12:48.591,93,584,924,-4394,3967,-23193
2025-10-11 16:12:48.592,44,362,997,6271,3601,-23986
2025-10-11 16:12:48.593,30,63,996,1328,732,-17822
2025-10-11 16:12:48.640,12,-141,1029,0,-3051,-5676
2025-10-11 16:12:48.641,16,52,1002,27526,-4333,-3173
2025-10-11 16:12:48.689,39,263,970,17028,-1708,-1037
2025-10-11 16:12:48.690,36,320,983,-13183,610,-2807
2025-10-11 16:12:48.744,43,217,1031,-30944,-1953,-488
2025-10-11 16:12:48.744,46,118,1047,-25390,-3967,122
2025-10-11 16:12:48.744,63,108,1070,-8972,-4028,2563
2025-10-11 16:12:48.788,69,186,1060,-2807,-2197,-61
2025-10-11 16:12:48.789,61,232,1034,-9521,2319,-2380
2025-10-11 16:12:48.836,46,160,1038,-13305,4638,-3417
2025-10-11 16:12:48.837,30,132,1027,-6835,2685,-1037
2025-10-11 16:12:48.838,36,103,1031,427,-366,2014
2025-10-11 16:12:48.885,48,148,1024,3234,-1770,2685
2025-10-11 16:12:48.885,48,187,1012,-366,183,2563
2025-10-11 16:12:48.933,38,209,1011,-8239,2746,2441
2025-10-11 16:12:48.934,31,162,1022,-11596,3967,793
2025-10-11 16:12:48.935,35,139,1022,-8605,3356,-915
2025-10-11 16:12:48.981,32,141,1013,-5554,2807,-1281
2025-10-11 16:12:49.008,34,160,1018,-7385,1403,-2197
2025-10-11 16:12:49.034,30,153,1011,-12878,1037,-2197
2025-10-11 16:12:49.034,36,113,1019,-14038,1159,-732
2025-10-11 16:12:49.034,37,91,1026,-9094,1647,-61
2025-10-11 16:12:49.080,41,107,1022,-4272,2868,61
2025-10-11 16:12:49.080,32,136,1011,-5310,3967,427
2025-10-11 16:12:49.128,26,135,1015,-8911,3173,0
2025-10-11 16:12:49.128,20,109,1018,-7690,1464,-549
2025-10-11 16:12:49.177,24,97,1024,-3662,-671,-610
2025-10-11 16:12:49.178,31,114,1016,-1708,-122,-976
2025-10-11 16:12:49.179,31,126,1008,-5187,1831,-1647
2025-10-11 16:12:49.226,20,110,1006,-8850,3356,-1281
2025-10-11 16:12:49.227,16,72,1009,-5065,1770,-549
2025-10-11 16:12:49.295,17,67,1016,488,-366,-732
2025-10-11 16:12:49.295,22,100,1007,1159,-1281,-244
2025-10-11 16:12:49.295,26,125,998,-3356,549,-122
2025-10-11 16:12:49.326,27,113,1006,-8178,1770,-366
2025-10-11 16:12:49.326,11,104,1003,-9826,1464,-488
2025-10-11 16:12:49.372,15,67,1010,-6774,-61,-1342
2025-10-11 16:12:49.373,21,84,1004,-3662,-1159,-2075
2025-10-11 16:12:49.375,19,79,1001,-4333,-1708,-2258
2025-10-11 16:12:49.421,15,61,1014,-4272,-2685,-366
2025-10-11 16:12:49.421,19,59,1021,-2197,-2868,1037
2025-10-11 16:12:49.518,38,78,1023,-1953,-854,854
2025-10-11 16:12:49.519,28,82,1020,-2563,671,732
2025-10-11 16:12:49.519,15,73,1029,-3112,-427,1464
2025-10-11 16:12:49.520,25,65,1031,-2197,-2319,1953
2025-10-11 16:12:49.578,36,92,1028,-2868,-1831,2746
2025-10-11 16:12:49.579,29,87,1030,-4333,-183,2319
2025-10-11 16:12:49.579,24,68,1044,-2868,366,3234
2025-10-11 16:12:49.615,18,51,1054,1464,-1037,2502
2025-10-11 16:12:49.616,35,88,1049,3784,-427,2990
2025-10-11 16:12:49.620,32,90,1050,3112,1770,1831
2025-10-11 16:12:49.664,29,101,1054,1464,1342,1098
2025-10-11 16:12:49.664,35,83,1045,-366,1037,1220
2025-10-11 16:12:49.713,44,110,1032,-2014,2136,5004
2025-10-11 16:12:49.713,19,51,1031,-2685,4089,122
2025-10-11 16:12:49.714,28,64,1037,-793,3417,610
2025-10-11 16:12:49.761,27,74,1026,-549,3295,-488
2025-10-11 16:12:49.762,47,163,1032,-1220,3662,3540
2025-10-11 16:12:49.811,3,41,1009,-4089,3051,1403
2025-10-11 16:12:49.812,39,71,1039,-6103,2380,2441
2025-10-11 16:12:49.812,7,1,1039,-1037,1708,-6164
2025-10-11 16:12:49.861,32,119,1013,305,3417,1098
2025-10-11 16:12:49.861,21,103,1013,-5493,5554,2014
2025-10-11 16:12:49.908,8,63,1013,-3356,4821,1281
2025-10-11 16:12:49.909,2,52,1018,-61,1892,1464
2025-10-11 16:12:49.957,4,63,1004,-1525,366,-61
2025-10-11 16:12:49.958,16,82,1006,-6774,1403,-1159
2025-10-11 16:12:49.958,4,46,1016,-9460,2868,-1098
2025-10-11 16:12:50.005,1,20,1033,-5432,1586,122
2025-10-11 16:12:50.006,0,18,1027,-1403,854,2685
2025-10-11 16:12:50.054,7,52,1023,-4638,2136,3784
2025-10-11 16:12:50.055,7,52,1025,-7995,2990,2624
2025-10-11 16:12:50.055,4,31,1032,-6713,2685,2990
2025-10-11 16:12:50.103,9,29,1037,-4211,1342,2868
2025-10-11 16:12:50.104,13,54,1026,-6652,2197,3173
2025-10-11 16:12:50.201,12,38,1022,-9887,3784,2868
2025-10-11 16:12:50.202,8,-1,1038,-7080,2929,4028
2025-10-11 16:12:50.203,3,25,1026,-4211,2319,5554
2025-10-11 16:12:50.203,2,55,1016,-7324,3784,5920
2025-10-11 16:12:50.249,-7,32,1012,-8728,4943,5371
2025-10-11 16:12:50.250,-13,7,1025,-1159,2258,4394
2025-10-11 16:12:50.250,-10,38,1018,-122,793,3295
2025-10-11 16:12:50.251,-2,34,1020,-2258,488,1831
2025-10-11 16:12:50.298,5,31,1013,-3967,1525,61
2025-10-11 16:12:50.299,-2,33,1014,-5187,1708,-1098
2025-10-11 16:12:50.346,-14,20,1007,-5249,549,-2319
2025-10-11 16:12:50.347,-15,-7,1012,-2197,-1281,-1831
2025-10-11 16:12:50.395,-8,3,1021,1159,-3845,-1586
2025-10-11 16:12:50.396,0,31,1024,976,-3723,-732
2025-10-11 16:12:50.423,3,37,1033,-671,-1586,-1220
2025-10-11 16:12:50.449,-5,14,1047,3112,-488,-1953
2025-10-11 16:12:50.449,3,26,1048,5737,-1220,-2624
2025-10-11 16:12:50.494,6,44,1038,2807,-427,-2624
2025-10-11 16:12:50.495,6,57,1035,-2380,1098,-2258
2025-10-11 16:12:50.496,7,31,1035,-5249,2563,-2685
2025-10-11 16:12:50.542,5,5,1028,-4089,3234,-3173
2025-10-11 16:12:50.542,-8,0,1024,-1403,2319,-2929
2025-10-11 16:12:50.590,-11,-1,1021,610,671,-2502
2025-10-11 16:12:50.591,0,10,1026,2563,-488,-2624
2025-10-11 16:12:50.592,0,28,1016,976,366,-3234
2025-10-11 16:12:50.639,-12,17,1017,-1525,1403,-2258
2025-10-11 16:12:50.640,-9,-16,1027,61,671,-1464
2025-10-11 16:12:50.710,-9,2,1015,366,671,-1281
2025-10-11 16:12:50.710,-9,11,1008,-1403,1403,-610
2025-10-11 16:12:50.740,-11,0,1014,-1159,1159,183
2025-10-11 16:12:50.740,-10,3,1015,0,549,549
2025-10-11 16:12:50.740,-14,9,1020,-854,-793,366
2025-10-11 16:12:50.786,-2,15,1019,-2197,-671,-183
2025-10-11 16:12:50.787,-9,18,1017,-4577,732,183
2025-10-11 16:12:50.834,-14,6,1023,-6103,1342,-305
2025-10-11 16:12:50.835,-18,-11,1036,-3967,-915,-244
2025-10-11 16:12:50.836,-2,5,1027,-3173,-915,-488
2025-10-11 16:12:50.883,-3,16,1026,-5859,1586,-1464
2025-10-11 16:12:50.883,-3,8,1027,-9155,5371,-4394
2025-10-11 16:12:50.931,-6,8,1039,-9826,8178,-4089
2025-10-11 16:12:50.932,-12,-23,1039,-6347,7995,-3479
2025-10-11 16:12:50.933,-24,-44,1039,183,5920,-1281
2025-10-11 16:12:50.998,-25,-16,1039,3540,1708,-1037
2025-10-11 16:12:50.998,-17,11,1040,2258,-1159,0
2025-10-11 16:12:51.043,-14,10,1036,-732,-1525,-1525
2025-10-11 16:12:51.043,-10,-12,1046,183,244,-1831
2025-10-11 16:12:51.079,-15,-10,1039,1464,2014,-427
2025-10-11 16:12:51.080,-16,0,1035,-61,2075,-305
2025-10-11 16:12:51.081,-20,-9,1034,-1586,1037,-61
2025-10-11 16:12:51.127,-13,-2,1030,-1525,183,366
2025-10-11 16:12:51.128,-10,12,1018,-4211,2258,305
2025-10-11 16:12:51.176,-15,15,1023,-8850,4577,-1098
2025-10-11 16:12:51.176,-19,-5,1028,-11779,5859,-2136
2025-10-11 16:12:51.177,-15,9,1019,-18066,6652,-2990
2025-10-11 16:12:51.224,-10,114,1004,21042,8117,-5187
2025-10-11 16:12:51.225,-5,173,1017,4669,10437,-9948
2025-10-11 16:12:51.286,8,97,953,14724,16845,-11596
2025-10-11 16:12:51.286,-5,-75,895,-23179,26306,-11962
2025-10-11 16:12:51.286,-39,-224,889,16539,30456,-15869
2025-10-11 16:12:51.330,-54,-274,834,-13368,26245,-21240
2025-10-11 16:12:51.330,-60,-406,735,27998,24291,-17517
2025-10-11 16:12:51.370,-55,-539,654,13533,23986,-15136
2025-10-11 16:12:51.371,-59,-756,600,21711,25268,-9643
2025-10-11 16:12:51.372,-67,-821,540,31172,27160,-10559
2025-10-11 16:12:51.419,-63,-807,439,28608,29235,-12756
2025-10-11 16:12:51.420,-55,-818,322,1509,32043,-15136
2025-10-11 16:12:51.468,-41,-917,112,-15215,32348,-11962
2025-10-11 16:12:51.468,-40,-1018,-41,-18633,32714,-7629
2025-10-11 16:12:51.517,-68,-1138,-141,-4961,30517,-2929
2025-10-11 16:12:51.518,-92,-1183,-200,24824,24169,3112
2025-10-11 16:12:51.519,-107,-1160,-247,-1161,13244,8422
2025-10-11 16:12:51.592,-85,-1216,-322,-8042,7324,15075
2025-10-11 16:12:51.592,-65,-1179,-364,-12299,7568,15441
2025-10-11 16:12:51.627,-72,-1005,-378,23956,5737,9033
2025-10-11 16:12:51.627,-86,-1005,-401,-8316,5615,6774
2025-10-11 16:12:51.627,-81,-935,-414,23788,5432,5004
2025-10-11 16:12:51.712,-82,-897,-423,-31188,4394,3601
2025-10-11 16:12:51.712,-59,-908,-455,-16601,7812,3906
2025-10-11 16:12:51.713,-53,-909,-472,-1342,11840,3967
2025-10-11 16:12:51.714,-75,-858,-442,4577,10314,1586
2025-10-11 16:12:51.760,-85,-838,-427,3479,4882,-610
2025-10-11 16:12:51.761,-75,-840,-444,1342,2380,-732
2025-10-11 16:12:51.762,-59,-894,-457,10620,4089,1159
2025-10-11 16:12:51.810,-73,-906,-426,22888,4333,1464
2025-10-11 16:12:51.810,-73,-862,-420,29907,2685,1953
2025-10-11 16:12:51.811,-66,-832,-418,18981,1892,-1953
2025-10-11 16:12:51.858,-67,-855,-408,14465,2563,-1037
2025-10-11 16:12:51.859,-68,-877,-402,16845,4089,122
2025-10-11 16:12:51.911,-75,-897,-393,23315,4943,-732
2025-10-11 16:12:51.911,-79,-857,-375,22460,4272,-2441
2025-10-11 16:12:51.956,-59,-853,-378,16967,4211,-3479
2025-10-11 16:12:51.957,-63,-872,-386,11047,6286,-4516
2025-10-11 16:12:51.957,-55,-910,-386,11169,8666,-4089
2025-10-11 16:12:52.004,-63,-941,-382,18005,9460,-2563
2025-10-11 16:12:52.005,-55,-912,-378,23376,7507,-2624
2025-10-11 16:12:52.053,-63,-888,-380,14770,2441,-5065
2025-10-11 16:12:52.053,-41,-926,-387,10498,2441,-3234
2025-10-11 16:12:52.054,-44,-962,-375,11596,3234,-305
2025-10-11 16:12:52.102,-49,-950,-370,13366,3540,549
2025-10-11 16:12:52.103,-51,-917,-358,9643,1953,-854
2025-10-11 16:12:52.175,-37,-916,-371,6164,1770,-366
2025-10-11 16:12:52.176,-47,-959,-368,8178,2563,-366
2025-10-11 16:12:52.176,-47,-975,-364,17272,3356,1647
2025-10-11 16:12:52.202,-53,-962,-357,24780,2319,3234
2025-10-11 16:12:52.202,-54,-973,-352,-31601,1586,4699
2025-10-11 16:12:52.248,-52,-996,-335,-12558,244,6286
2025-10-11 16:12:52.249,-27,-962,-318,-1938,-427,8422
2025-10-11 16:12:52.297,-38,-1088,-291,31815,1647,16479
2025-10-11 16:12:52.297,-66,-1166,-223,19196,-61,24414
2025-10-11 16:12:52.298,-109,-1048,-156,-14663,-8850,21545
2025-10-11 16:12:52.345,-95,-953,-103,-4470,-16235,18432
2025-10-11 16:12:52.346,-76,-1015,-55,6700,-15136,16967
2025-10-11 16:12:52.395,-85,-1060,-21,-29540,-7751,22399
2025-10-11 16:12:52.395,-95,-1056,38,4762,-3417,30700
2025-10-11 16:12:52.396,-165,-920,173,11842,-10498,25390
2025-10-11 16:12:52.461,-187,-844,306,-6590,-28869,22399
2025-10-11 16:12:52.461,-161,-799,390,-15135,-29174,25451
2025-10-11 16:12:52.493,-147,-848,470,-8055,-24353,24841
2025-10-11 16:12:52.494,-199,-909,594,19167,-26489,26000
2025-10-11 16:12:52.494,-248,-838,716,-12861,25009,29418
2025-10-11 16:12:52.542,-205,-594,741,-7612,4684,31677
2025-10-11 16:12:52.543,-184,-433,685,31190,-7889,18737
2025-10-11 16:12:52.589,-175,-518,822,-29646,-11551,24536
2025-10-11 16:12:52.589,-27,-563,987,11797,-22476,-30258
2025-10-11 16:12:52.638,68,-165,903,12285,-20950,25634
2025-10-11 16:12:52.638,39,353,799,22935,22690,-4089
2025-10-11 16:12:52.639,109,427,1037,13825,-23071,-61
2025-10-11 16:12:52.687,71,213,1028,-17303,-4150,4150
2025-10-11 16:12:52.687,35,220,1016,-31158,6896,4577
2025-10-11 16:12:52.744,-5,272,995,18631,5737,3234
2025-10-11 16:12:52.744,-55,265,993,-290,-732,1342
2025-10-11 16:12:52.744,8,300,988,-12619,-6286,1892
2025-10-11 16:12:52.789,10,445,924,19348,-4211,-2868
2025-10-11 16:12:52.789,4,436,913,-29296,2136,-5371
2025-10-11 16:12:52.833,-31,302,944,3403,3723,-7690
2025-10-11 16:12:52.833,-36,88,989,22141,-2990,-2502
2025-10-11 16:12:52.834,-6,122,976,-18249,-4211,-244
2025-10-11 16:12:52.881,-30,217,966,-18249,-2319,-183
2025-10-11 16:12:52.882,-16,245,995,-29541,-1770,-2807
2025-10-11 16:12:52.930,-20,221,994,23422,-976,-2685
2025-10-11 16:12:52.931,-16,170,998,17197,-427,-3479
2025-10-11 16:12:52.932,-41,77,1022,21347,-1098,-3662
2025-10-11 16:12:52.979,-4,-1,1064,-21484,-4089,-2502
2025-10-11 16:12:52.980,4,106,1030,-5981,-2990,-1892
2025-10-11 16:12:53.030,-6,202,1003,-16967,732,-4333
2025-10-11 16:12:53.031,-15,151,1059,-29479,1586,-4577
2025-10-11 16:12:53.077,-10,37,1058,-18615,-1342,-3356
2025-10-11 16:12:53.077,-7,87,1033,-7751,-1586,-3295
2025-10-11 16:12:53.079,-10,113,1028,-7995,-1098,-4272
2025-10-11 16:12:53.125,-10,96,1037,-8239,-2014,-4394
2025-10-11 16:12:53.126,-9,92,1030,-7202,-2685,-4272
2025-10-11 16:12:53.174,-1,91,1027,-7995,-2685,-3784
2025-10-11 16:12:53.174,8,64,1025,-5737,-2258,-3234
2025-10-11 16:12:53.175,11,86,1030,-2380,-1770,-3479
2025-10-11 16:12:53.223,6,130,1025,-5310,-610,-4699
2025-10-11 16:12:53.223,3,146,1020,-15563,3051,-7507
2025-10-11 16:12:53.271,1,73,1031,-16845,3051,-9460
2025-10-11 16:12:53.272,-4,22,1031,-10009,1525,-8422
2025-10-11 16:12:53.273,-4,26,1023,-4211,-305,-6835
2025-10-11 16:12:53.325,1,43,1025,-4211,-854,-4760
2025-10-11 16:12:53.325,2,52,1030,-6591,-610,-4699
2025-10-11 16:12:53.370,-1,59,1027,-9704,1098,-5004
2025-10-11 16:12:53.370,-11,53,1027,-12023,2014,-4577
2025-10-11 16:12:53.418,-18,24,1037,-11596,732,-4821
2025-10-11 16:12:53.419,-2,6,1037,-6652,-854,-3051
2025-10-11 16:12:53.419,-5,32,1023,-5676,1159,-2502
2025-10-11 16:12:53.467,-16,25,1023,-7324,1770,-2380
2025-10-11 16:12:53.468,-14,9,1031,-5981,1159,-1892
2025-10-11 16:12:53.515,-18,9,1023,-3601,427,-1098
2025-10-11 16:12:53.516,-15,17,1024,-2868,122,-549
2025-10-11 16:12:53.516,-18,9,1023,-1342,0,-61
2025-10-11 16:12:53.589,-2,13,1025,1037,0,-1037
2025-10-11 16:12:53.589,-5,36,1005,-244,1037,-915
2025-10-11 16:12:53.617,-10,43,1003,-3540,1586,-1159
2025-10-11 16:12:53.617,-12,28,1010,-5187,671,-1586
2025-10-11 16:12:53.617,-14,25,1018,-2502,-1953,-2746
2025-10-11 16:12:53.662,-12,34,1007,-3295,-2136,-3723
2025-10-11 16:12:53.663,-7,23,1002,-4089,-610,-3601
2025-10-11 16:12:53.711,-6,13,1008,-3967,305,-2319
2025-10-11 16:12:53.712,-11,-7,1020,-732,-976,-1708
2025-10-11 16:12:53.712,-3,13,1022,2319,-2136,-1220
2025-10-11 16:12:53.760,0,22,1011,549,-1281,-2014
2025-10-11 16:12:53.760,4,26,1007,-2929,1464,-1403
2025-10-11 16:12:53.808,-7,-4,1022,-2685,3295,-305
2025-10-11 16:12:53.808,-6,-9,1031,244,3784,183
2025-10-11 16:12:53.873,-15,12,1024,-671,1953,-305
2025-10-11 16:12:53.873,-31,0,1035,-793,-1220,-366
2025-10-11 16:12:53.873,-13,9,1040,-183,-3417,-793
2025-10-11 16:12:53.914,-7,26,1031,-2258,-2136,-1159
2025-10-11 16:12:53.914,-10,17,1037,-5065,-732,-1586
2025-10-11 16:12:53.955,-13,-10,1036,-4455,-488,-1098
2025-10-11 16:12:53.955,-13,-12,1048,-2319,-1586,-610
2025-10-11 16:12:53.956,-10,-6,1042,-427,-2624,-1464
2025-10-11 16:12:54.003,-5,6,1031,-1647,-1892,-976
2025-10-11 16:12:54.004,-8,3,1026,-4638,-732,-61
2025-10-11 16:12:54.052,-9,-9,1031,-4211,-183,-61
2025-10-11 16:12:54.052,-8,-17,1036,-1220,-671,-427
2025-10-11 16:12:54.053,-9,0,1032,-122,-915,-854
2025-10-11 16:12:54.100,-9,8,1030,-1220,-549,-915
2025-10-11 16:12:54.101,-9,0,1029,-732,-305,-1464
2025-10-11 16:12:54.155,-8,-3,1020,244,-61,-1953
2025-10-11 16:12:54.156,-2,-1,1019,-183,-122,-1647
2025-10-11 16:12:54.156,-9,-1,1017,-2014,-610,-1525
2025-10-11 16:12:54.201,-8,-18,1025,-2197,-1770,-1220
2025-10-11 16:12:54.201,-4,-25,1023,-671,-2136,-793
2025-10-11 16:12:54.247,1,-9,1018,-1342,61,-610
2025-10-11 16:12:54.247,-9,-13,1027,-2197,488,-122
2025-10-11 16:12:54.295,-13,-14,1025,-1770,-610,-610
2025-10-11 16:12:54.296,-7,-25,1032,-671,-1831,-671
2025-10-11 16:12:54.296,-5,-12,1034,61,-2014,-732
2025-10-11 16:12:54.344,-1,-11,1036,-1525,-1281,-976
2025-10-11 16:12:54.345,-2,-22,1039,-1892,0,-305
2025-10-11 16:12:54.393,-2,-28,1040,-793,671,-122
2025-10-11 16:12:54.394,1,-20,1044,427,488,244
2025-10-11 16:12:54.394,-5,-3,1036,-671,427,0
2025-10-11 16:12:54.444,-2,-17,1046,-244,-244,-427
2025-10-11 16:12:54.444,-3,-21,1036,366,-122,0
2025-10-11 16:12:54.492,-4,-25,1030,-122,488,610
2025-10-11 16:12:54.494,-1,-28,1027,427,1525,1281
2025-10-11 16:12:54.495,-4,-23,1024,915,1953,1403
2025-10-11 16:12:54.539,-7,-11,1020,244,2075,854
2025-10-11 16:12:54.540,-14,-12,1022,-244,1220,488
2025-10-11 16:12:54.588,-8,-12,1016,-793,732,-122
2025-10-11 16:12:54.589,-12,-18,1015,-1159,1037,549
2025-10-11 16:12:54.637,-15,-18,1017,-854,793,1037
2025-10-11 16:12:54.639,-9,-13,1014,-976,366,305
2025-10-11 16:12:54.639,-5,-17,1006,-854,732,549
2025-10-11 16:12:54.687,-10,-17,1014,-854,488,305
2025-10-11 16:12:54.687,-13,-4,1015,-1892,-61,-305
2025-10-11 16:12:54.738,-15,-17,1019,-2868,-305,-183
2025-10-11 16:12:54.738,-8,-26,1030,-1342,-1403,-305
2025-10-11 16:12:54.738,-10,-12,1029,-854,-1708,-122
2025-10-11 16:12:54.784,-2,1,1034,-3295,-1037,-305
2025-10-11 16:12:54.785,-3,-3,1028,-7385,732,-1098
2025-10-11 16:12:54.833,-7,-21,1030,-9216,1220,-1281
2025-10-11 16:12:54.833,-14,-47,1031,-4211,-183,-305
2025-10-11 16:12:54.834,-4,-24,1027,-2563,-1098,-1098
2025-10-11 16:12:54.880,1,-10,1020,-7263,0,-915
2025-10-11 16:12:54.881,1,-29,1018,-10559,1281,-976
2025-10-11 16:12:54.929,-10,-59,1026,-7995,1220,-1037
2025-10-11 16:12:54.930,-10,-59,1023,-3784,549,-915
2025-10-11 16:12:55.004,-8,-57,1029,-427,-122,-549
2025-10-11 16:12:55.004,-6,-21,1022,-2380,-122,-915
2025-10-11 16:12:55.004,-10,-34,1020,-7263,1220,-610
2025-10-11 16:12:55.030,-9,-60,1030,-6591,1892,-671
2025-10-11 16:12:55.030,-16,-68,1024,-3479,1464,-1037
2025-10-11 16:12:55.076,-14,-56,1021,-3234,610,-915
2025-10-11 16:12:55.077,-11,-55,1016,-4150,488,-488
2025-10-11 16:12:55.077,-7,-47,1012,-5859,1037,-305
2025-10-11 16:12:55.124,-10,-63,1013,-7385,2136,-1159
2025-10-11 16:12:55.125,-14,-74,1028,-5554,2136,-610
2025-10-11 16:12:55.173,-22,-68,1026,-4028,1953,-854
2025-10-11 16:12:55.173,-18,-49,1025,-6042,793,-1037
2025-10-11 16:12:55.174,-14,-60,1022,-8483,854,-793
2025-10-11 16:12:55.222,-14,-74,1024,-10009,427,-1342
2025-10-11 16:12:55.223,-6,-79,1026,-9887,61,-61
2025-10-11 16:12:55.320,-11,-72,1021,-13305,-61,854
2025-10-11 16:12:55.333,-14,-60,1014,-20385,-427,1281
2025-10-11 16:12:55.333,-12,-67,1020,-28686,-1647,2075
2025-10-11 16:12:55.333,-8,-97,1035,-32348,-3295,610
2025-10-11 16:12:55.370,-2,-92,1018,30319,-1770,-732
2025-10-11 16:12:55.370,-13,-104,1010,25253,4028,-549
2025-10-11 16:12:55.370,-11,-154,1033,24338,6958,-854
2025-10-11 16:12:55.417,-23,-174,1030,25375,6958,-427
2025-10-11 16:12:55.417,-12,-174,1023,24399,6896,-244
2025-10-11 16:12:55.418,-15,-153,1010,9750,8605,-1098
2025-10-11 16:12:55.465,-21,-169,1007,-4776,9948,-3295
2025-10-11 16:12:55.466,-9,-172,994,-23392,10437,-5737
2025-10-11 16:12:55.514,-10,-220,952,24078,14160,-5798
2025-10-11 16:12:55.515,-29,-312,937,15350,16967,-5859
2025-10-11 16:12:55.516,-28,-400,935,15777,13916,-7568
2025-10-11 16:12:55.578,-32,-306,884,-3937,9216,-11413
2025-10-11 16:12:55.578,-38,-252,815,14296,7202,-13366
2025-10-11 16:12:55.613,-33,-357,752,-28733,8239,-11230
2025-10-11 16:12:55.613,-36,-526,709,11534,9704,-9948
2025-10-11 16:12:55.613,-16,-667,586,-2809,17333,-13916
2025-10-11 16:12:55.661,-45,-690,491,-21059,22155,-18615
2025-10-11 16:12:55.661,-21,-840,417,-27467,26428,-18310
2025-10-11 16:12:55.709,-19,-897,309,-24171,30273,-19653
2025-10-11 16:12:55.710,-19,-940,196,-21303,-31967,-19653
2025-10-11 16:12:55.758,-36,-1108,150,1952,-30807,-18554
2025-10-11 16:12:55.758,-21,-1159,83,-25437,-30319,-20690
2025-10-11 16:12:55.759,0,-1149,5,12954,-27145,-16052
2025-10-11 16:12:55.806,-2,-1097,-52,-25727,-25131,-11901
2025-10-11 16:12:55.807,3,-1121,-101,-3266,-25436,-10437
2025-10-11 16:12:55.869,5,-1111,-170,30731,-29587,-6347
2025-10-11 16:12:55.869,-8,-998,-182,-29556,28381,-5126
2025-10-11 16:12:55.869,8,-1021,-220,-20828,20690,-3112
2025-10-11 16:12:55.911,-11,-1041,-211,-6058,11474,-244
2025-10-11 16:12:55.911,-24,-1032,-226,15366,2258,3540
2025-10-11 16:12:55.953,11,-1023,-249,-29418,-976,4882
2025-10-11 16:12:55.954,31,-1011,-241,-14282,-610,1281
2025-10-11 16:12:55.955,22,-947,-237,-4821,-183,0
2025-10-11 16:12:56.001,22,-930,-243,3234,1892,1770
2025-10-11 16:12:56.002,14,-905,-230,4943,2502,854
2025-10-11 16:12:56.050,7,-934,-215,4394,793,-1892
2025-10-11 16:12:56.051,37,-946,-243,4150,3417,-1708
2025-10-11 16:12:56.099,29,-946,-252,2197,6713,-2807
2025-10-11 16:12:56.099,11,-961,-247,1403,6225,-2746
2025-10-11 16:12:56.100,17,-946,-250,1220,3295,-1342
2025-10-11 16:12:56.151,18,-945,-259,-1220,915,-1220
2025-10-11 16:12:56.151,18,-978,-262,-244,793,-1586
2025-10-11 16:12:56.197,27,-982,-265,3356,1525,244
2025-10-11 16:12:56.199,17,-986,-273,7324,3295,1098
2025-10-11 16:12:56.200,7,-954,-265,6347,2075,-15563
2025-10-11 16:12:56.245,11,-954,-266,793,-1647,-2197
2025-10-11 16:12:56.246,26,-978,-280,2258,-1953,427
2025-10-11 16:12:56.294,26,-972,-286,4516,-854,2197
2025-10-11 16:12:56.295,19,-984,-279,9155,-732,3112
2025-10-11 16:12:56.295,10,-1013,-268,21850,-2441,6591
2025-10-11 16:12:56.343,5,-1044,-253,-26108,-4211,8544
2025-10-11 16:12:56.343,5,-992,-229,-14938,-5981,10070
2025-10-11 16:12:56.391,-9,-1000,-190,-9140,-8911,9460
2025-10-11 16:12:56.392,-2,-1028,-147,3433,-11230,12939
2025-10-11 16:12:56.393,-5,-1070,-116,25162,-10681,19104
2025-10-11 16:12:56.450,0,-1130,-80,15534,-5798,29541
2025-10-11 16:12:56.450,-27,-1147,-25,-4409,-4882,-29160
2025-10-11 16:12:56.489,-60,-1096,21,32395,-8789,-26291
2025-10-11 16:12:56.491,-93,-1085,98,-2806,-16113,-22446
2025-10-11 16:12:56.538,-103,-1054,171,19106,-24963,-24826
2025-10-11 16:12:56.539,-98,-974,236,28200,32639,-27267
2025-10-11 16:12:56.539,-137,-918,285,-31172,31357,-27573
2025-10-11 16:12:56.587,-175,-1072,446,8562,25375,-15915
2025-10-11 16:12:56.588,-121,-840,551,-26456,11398,-11948
2025-10-11 16:12:56.636,-102,-527,544,12041,9506,-31967
2025-10-11 16:12:56.637,-94,-387,720,-1891,21347,-32455
2025-10-11 16:12:56.638,-86,-355,841,26841,24704,20507
2025-10-11 16:12:56.739,-54,-229,939,-1845,24643,16235
2025-10-11 16:12:56.739,-38,-60,889,16449,31967,10009
2025-10-11 16:12:56.740,-145,-202,909,-18402,-19348,6591
2025-10-11 16:12:56.740,-47,-454,1076,15839,-20263,13977
2025-10-11 16:12:56.790,-3,-185,1048,-16494,-28808,12817
2025-10-11 16:12:56.790,27,282,921,-11505,-22216,4699
2025-10-11 16:12:56.790,-27,447,901,3173,-6652,-7690
2025-10-11 16:12:56.830,-61,45,1013,1694,-488,-7446
2025-10-11 16:12:56.832,-61,-472,1115,25207,-2746,6835
2025-10-11 16:12:56.879,-23,-234,1035,26505,-5554,13549
2025-10-11 16:12:56.880,-50,196,945,-3647,-1708,7690
2025-10-11 16:12:56.881,-76,290,935,-12145,3112,1098
2025-10-11 16:12:56.928,-84,49,991,10117,915,-427
2025-10-11 16:12:56.929,-66,-205,1036,25742,-5737,244
2025-10-11 16:12:56.976,-39,-236,1023,2624,-8789,2746
2025-10-11 16:12:56.977,-36,-69,992,20751,-6042,2502
2025-10-11 16:12:56.978,-56,42,982,4638,-976,-671
2025-10-11 16:12:57.026,-52,-18,1011,-8789,732,793
2025-10-11 16:12:57.027,-44,-41,1000,-10681,-2685,-1098
2025-10-11 16:12:57.079,-24,-141,1024,4272,-2014,488
2025-10-11 16:12:57.079,-44,-78,1011,15197,-2258,1037
2025-10-11 16:12:57.079,-34,1,1019,7812,-3173,2014
2025-10-11 16:12:57.124,-37,28,1015,-7812,-2563,976
2025-10-11 16:12:57.124,-32,-29,1025,-14343,-854,-1708
2025-10-11 16:12:57.172,-46,-105,1034,-4455,-976,-366
2025-10-11 16:12:57.173,-37,-93,1047,11901,-2624,-305
2025-10-11 16:12:57.173,-28,14,1028,8361,-2502,-183
2025-10-11 16:12:57.220,-35,20,1020,-8972,122,-2746
2025-10-11 16:12:57.221,-38,-37,1037,-17089,1037,-2258
2025-10-11 16:12:57.269,-27,-80,1036,-12390,61,-1770
2025-10-11 16:12:57.270,-30,-72,1017,-10192,732,-2624
2025-10-11 16:12:57.336,-40,-101,1015,-7324,1708,-2563
2025-10-11 16:12:57.336,-32,-100,1030,-915,0,-1098
2025-10-11 16:12:57.336,-36,-64,1017,-610,-1220,-1647
2025-10-11 16:12:57.369,-43,-46,1010,-5737,-1342,-1831
2025-10-11 16:12:57.369,-39,-76,1013,-8178,-610,-2380
2025-10-11 16:12:57.416,-39,-97,1017,-5737,61,-1708
2025-10-11 16:12:57.417,-38,-111,1027,-976,-183,-2075
2025-10-11 16:12:57.417,-42,-86,1017,-732,-1159,-2014
2025-10-11 16:12:57.464,-42,-78,1019,-3723,-976,-1708
2025-10-11 16:12:57.465,-33,-78,1018,-6347,-366,-2685
2025-10-11 16:12:57.513,-41,-95,1020,-8483,488,-2624
2025-10-11 16:12:57.515,-38,-135,1028,-4394,366,-2685
2025-10-11 16:12:57.515,-44,-128,1031,610,-976,-2258
2025-10-11 16:12:57.561,-34,-119,1028,2441,-1770,-976
2025-10-11 16:12:57.562,-26,-111,1020,1464,183,-366
2025-10-11 16:12:57.611,-34,-109,1023,549,2685,-61
2025-10-11 16:12:57.626,-40,-104,1023,0,3540,-305
2025-10-11 16:12:57.663,-43,-104,1016,-854,1586,-366
2025-10-11 16:12:57.663,-38,-102,1008,-1770,549,305
2025-10-11 16:12:57.663,-40,-100,1005,-3662,427,549
2025-10-11 16:12:57.709,-45,-117,1011,-2929,427,915
2025-10-11 16:12:57.710,-37,-114,1020,1708,-305,732
2025-10-11 16:12:57.757,-41,-82,1017,1892,-1403,-671
2025-10-11 16:12:57.758,-41,-83,1025,-976,-2380,-1403
2025-10-11 16:12:57.758,-33,-108,1031,-1770,-2990,-1159
2025-10-11 16:12:57.806,-25,-110,1029,-1342,-1708,-244
2025-10-11 16:12:57.807,-25,-120,1024,-976,732,15563
2025-10-11 16:12:57.855,-32,-118,1028,1464,1403,1464
2025-10-11 16:12:57.855,-42,-88,1021,-427,793,1159
2025-10-11 16:12:57.856,-36,-88,1014,-2685,610,549
2025-10-11 16:12:57.916,-38,-100,1007,-2380,1220,-305
2025-10-11 16:12:57.916,-46,-103,1015,-305,671,-610
2025-10-11 16:12:57.958,-43,-102,1019,2319,-244,-1159
2025-10-11 16:12:57.958,-41,-93,1013,2075,-793,-1464
2025-10-11 16:12:57.959,-42,-98,1014,183,-1037,-1037
2025-10-11 16:12:58.000,-36,-104,1013,-976,-1403,-610
2025-10-11 16:12:58.001,-37,-109,1014,-1037,-1342,-488
2025-10-11 16:12:58.049,-41,-109,1014,366,-915,-366
2025-10-11 16:12:58.050,-37,-92,1009,-854,-854,-1403
2025-10-11 16:12:58.098,-33,-95,1007,-2258,-1159,-1831
2025-10-11 16:12:58.099,-39,-103,1002,-1525,-1953,-2380
2025-10-11 16:12:58.099,-45,-92,1004,-793,-2746,-2807
2025-10-11 16:12:58.146,-39,-83,1009,0,-2990,-4089
2025-10-11 16:12:58.147,-35,-88,1011,549,-2807,-5859
2025-10-11 16:12:58.202,-31,-96,1008,-61,-3356,-6408
2025-10-11 16:12:58.202,-28,-120,1018,-854,-4150,-4760
2025-10-11 16:12:58.202,-21,-134,1024,-1342,-4638,-3540
2025-10-11 16:12:58.246,-15,-141,1019,-549,-2868,-2502
2025-10-11 16:12:58.246,-18,-130,1017,-366,-1220,-976
2025-10-11 16:12:58.294,-20,-127,1018,-1159,-671,0
2025-10-11 16:12:58.294,-23,-121,1016,-1586,-1098,366
2025-10-11 16:12:58.295,-22,-123,1016,-2319,-1831,671
2025-10-11 16:12:58.341,-29,-128,1016,-1159,-2441,427
2025-10-11 16:12:58.342,-27,-114,1019,-183,-2746,366
2025-10-11 16:12:58.391,-25,-113,1019,-61,-2319,427
2025-10-11 16:12:58.391,-19,-107,1017,-244,-1586,-122
2025-10-11 16:12:58.392,-18,-111,1015,-854,-1220,-183
2025-10-11 16:12:58.439,-23,-113,1016,-366,-1953,-427
2025-10-11 16:12:58.440,-20,-121,1024,1037,-2624,-305
2025-10-11 16:12:58.490,-16,-113,1028,732,-2685,-122
2025-10-11 16:12:58.490,-19,-119,1035,732,-2563,-305
2025-10-11 16:12:58.538,-15,-115,1036,854,-2258,-488
2025-10-11 16:12:58.538,-11,-113,1032,183,-1403,-305
2025-10-11 16:12:58.540,-15,-121,1041,-244,-732,-610
2025-10-11 16:12:58.585,-14,-123,1043,854,-610,-671
2025-10-11 16:12:58.586,-12,-123,1041,915,-61,122
2025-10-11 16:12:58.634,-14,-118,1038,122,793,488
2025-10-11 16:12:58.635,-17,-119,1037,-366,1403,610
2025-10-11 16:12:58.635,-21,-126,1038,976,244,-732
2025-10-11 16:12:58.683,-15,-119,1034,2014,-671,-1037
2025-10-11 16:12:58.684,-10,-128,1033,2929,-61,-1159
2025-10-11 16:12:58.732,-4,-121,1026,3051,1647,-183
2025-10-11 16:12:58.732,-8,-118,1025,1403,3295,61
2025-10-11 16:12:58.733,-15,-119,1020,610,3601,915
2025-10-11 16:12:58.785,-21,-119,1013,1281,3112,1342
2025-10-11 16:12:58.785,-24,-115,1008,2319,2258,854
2025-10-11 16:12:58.830,-18,-111,1002,1953,2014,244
2025-10-11 16:12:58.833,-24,-112,992,1831,2319,0
2025-10-11 16:12:58.833,-35,-128,994,3784,1403,610
2025-10-11 16:12:58.878,-26,-115,1000,7019,122,1220
2025-10-11 16:12:58.879,-26,-85,994,4943,-366,427
2025-10-11 16:12:58.927,-24,-97,1004,3356,-732,122
2025-10-11 16:12:58.928,-24,-96,1006,854,-1159,122
2025-10-11 16:12:58.976,-21,-110,1010,488,-1220,122
2025-10-11 16:12:58.976,-22,-103,1010,1159,-1098,-427
2025-10-11 16:12:58.977,-20,-109,1012,854,-671,-732
2025-10-11 16:12:59.024,-22,-114,1014,1708,-1403,15441
2025-10-11 16:12:59.025,-27,-103,1017,1770,-1464,793
2025-10-11 16:12:59.080,-21,-95,1023,1403,-732,427
2025-10-11 16:12:59.080,-20,-93,1028,976,-732,-244
2025-10-11 16:12:59.080,-21,-105,1023,1403,-976,122
2025-10-11 16:12:59.122,-18,-100,1024,1525,-793,488
2025-10-11 16:12:59.123,-20,-94,1023,488,-366,854
2025-10-11 16:12:59.170,-18,-105,1031,1159,-793,671
2025-10-11 16:12:59.171,-17,-99,1026,3601,-854,427
2025-10-11 16:12:59.219,-16,-82,1024,3173,0,0
2025-10-11 16:12:59.220,-19,-79,1023,793,549,-305
2025-10-11 16:12:59.220,-21,-92,1028,793,-366,-549
2025-10-11 16:12:59.268,-15,-89,1020,1098,183,-854
2025-10-11 16:12:59.269,-16,-91,1019,-244,671,-976
2025-10-11 16:12:59.344,-17,-102,1017,-122,549,-732
2025-10-11 16:12:59.345,-18,-99,1016,732,122,-61
2025-10-11 16:12:59.345,-22,-89,1015,-488,-183,-610
2025-10-11 16:12:59.366,-22,-104,1016,-671,-183,-671
2025-10-11 16:12:59.371,-23,-105,1021,1586,-366,-610
2025-10-11 16:12:59.415,-20,-89,1020,1647,-488,-976
2025-10-11 16:12:59.417,-23,-92,1019,244,0,-1220
2025-10-11 16:12:59.417,-16,-97,1018,-732,122,-1159
2025-10-11 16:12:59.463,-19,-115,1019,671,-183,-671
2025-10-11 16:12:59.464,-21,-100,1020,1586,-244,-122
2025-10-11 16:12:59.512,-18,-99,1025,183,-61,-488
2025-10-11 16:12:59.513,-22,-97,1024,-671,549,-122
2025-10-11 16:12:59.514,-27,-99,1031,-1586,854,0
2025-10-11 16:12:59.561,-22,-90,1035,-3540,1037,-183
2025-10-11 16:12:59.562,-17,-97,1035,-6347,1770,-671
2025-10-11 16:12:59.634,-21,-109,1031,-7873,2563,-366
2025-10-11 16:12:59.635,-20,-113,1031,-9765,2929,488
2025-10-11 16:12:59.662,-17,-106,1022,-16662,4211,732
2025-10-11 16:12:59.662,-28,-85,1014,-25695,4760,549
2025-10-11 16:12:59.662,-42,-72,1007,25803,4699,488
2025-10-11 16:12:59.708,-40,-90,1019,8530,2075,-1220
2025-10-11 16:12:59.709,-37,-55,1002,-17471,-488,-3662
2025-10-11 16:12:59.755,-33,-2,980,1129,-2197,-7568
2025-10-11 16:12:59.756,-26,-57,943,10879,-3784,-9277
2025-10-11 16:12:59.756,-16,-346,926,-6272,-3295,-1953
2025-10-11 16:12:59.804,-15,-530,919,12710,-3173,2990
2025-10-11 16:12:59.805,-6,-488,880,19362,-2197,-14282
2025-10-11 16:12:59.853,-3,-431,780,-20860,305,-9704
2025-10-11 16:12:59.854,3,-498,693,10619,2319,-9826
2025-10-11 16:12:59.854,28,-735,592,2318,8605,-6286
2025-10-11 16:12:59.927,69,-858,517,4393,20874,-13610
2025-10-11 16:12:59.927,47,-821,441,182,-31174,-24414
2025-10-11 16:12:59.955,-11,-717,334,-18373,-25742,-21911
2025-10-11 16:12:59.955,-11,-894,228,-21730,-25314,-7690
2025-10-11 16:13:00.000,-27,-943,142,-19533,-28549,-5554
2025-10-11 16:13:00.001,-47,-957,34,-10561,29541,-1159
2025-10-11 16:13:00.001,-65,-1032,-30,4149,20568,2502
2025-10-11 16:13:00.048,-17,-1104,-181,-10667,17883,13122
2025-10-11 16:13:00.049,12,-1137,-227,22048,25085,2258
2025-10-11 16:13:00.097,-4,-1052,-241,-11689,26672,1281
2025-10-11 16:13:00.098,-31,-1008,-234,3082,18310,-4577
2025-10-11 16:13:00.099,-22,-976,-283,22247,10009,-4821
2025-10-11 16:13:00.145,-3,-1039,-314,-14786,4882,-2929
2025-10-11 16:13:00.146,-5,-1016,-324,5600,2380,-4699
2025-10-11 16:13:00.219,8,-959,-344,19760,3051,-3417
2025-10-11 16:13:00.219,4,-937,-354,27206,4333,-732
2025-10-11 16:13:00.219,2,-924,-365,28061,3479,-3112
2025-10-11 16:13:00.244,0,-928,-393,-24902,488,244
2025-10-11 16:13:00.244,12,-1015,-399,-2441,1281,3723
2025-10-11 16:13:00.292,0,-978,-363,14770,61,1586
2025-10-11 16:13:00.292,7,-891,-358,20141,-1953,305
2025-10-11 16:13:00.294,14,-877,-369,16296,-793,-1525
2025-10-11 16:13:00.340,9,-906,-363,11718,915,-3723
2025-10-11 16:13:00.341,12,-963,-356,19409,3112,-427
2025-10-11 16:13:00.389,8,-959,-367,30090,6286,2075
2025-10-11 16:13:00.390,1,-893,-356,25939,6225,244
2025-10-11 16:13:00.438,5,-889,-354,14587,2929,-793
2025-10-11 16:13:00.439,10,-932,-367,13305,793,1708
2025-10-11 16:13:00.439,13,-966,-358,22338,1647,3417
2025-10-11 16:13:00.501,8,-931,-353,27832,2563,3662
2025-10-11 16:13:00.501,2,-905,-339,25024,1831,2136
2025-10-11 16:13:00.543,-12,-892,-328,15930,-1037,854
2025-10-11 16:13:00.543,-4,-915,-332,7263,-2502,0
2025-10-11 16:13:00.543,5,-938,-337,3845,-1098,183
2025-10-11 16:13:00.584,-2,-946,-332,5920,-244,1403
2025-10-11 16:13:00.585,-12,-941,-326,8239,-2014,1831
2025-10-11 16:13:00.633,-1,-933,-323,8483,-4699,1098
2025-10-11 16:13:00.634,6,-919,-323,4089,-5371,0
2025-10-11 16:13:00.635,10,-936,-310,5004,-3051,61
2025-10-11 16:13:00.683,6,-939,-300,7995,-1403,366
2025-10-11 16:13:00.683,-3,-915,-294,6469,-1464,-366
2025-10-11 16:13:00.784,1,-927,-294,3540,-2136,-1159
2025-10-11 16:13:00.784,-1,-945,-292,3906,-2990,-1586
2025-10-11 16:13:00.785,0,-941,-300,3540,-2502,-1098
2025-10-11 16:13:00.830,4,-945,-298,1159,-915,-732
2025-10-11 16:13:00.830,3,-957,-297,1831,-244,427
2025-10-11 16:13:00.830,0,-962,-294,5004,-1159,671
2025-10-11 16:13:00.831,-3,-934,-288,5371,-3906,-61
2025-10-11 16:13:00.877,3,-951,-283,7202,-3845,244
2025-10-11 16:13:00.877,0,-942,-279,10620,-2075,793
2025-10-11 16:13:00.878,4,-922,-287,9460,305,-671
2025-10-11 16:13:00.925,1,-918,-287,3967,2319,-1953
2025-10-11 16:13:00.926,-11,-962,-291,3601,3295,-1464
2025-10-11 16:13:00.974,-18,-1012,-286,13854,3051,854
2025-10-11 16:13:00.975,-20,-1045,-272,-30991,610,4333
2025-10-11 16:13:00.975,-30,-1098,-252,381,-671,7385
2025-10-11 16:13:01.023,-15,-1166,-227,-16876,1525,16601
2025-10-11 16:13:01.023,-2,-1261,-182,27391,8666,21423
2025-10-11 16:13:01.074,-42,-1161,-87,14345,2624,23071
2025-10-11 16:13:01.074,-72,-864,-8,7631,-10437,18310
2025-10-11 16:13:01.074,-31,-855,75,-18980,-12939,18798
2025-10-11 16:13:01.123,-46,-1033,186,-9703,-8789,22277
2025-10-11 16:13:01.124,-64,-1241,292,-20735,-5371,27893
2025-10-11 16:13:01.169,-81,-1133,358,-25113,-9399,31677
2025-10-11 16:13:01.170,-134,-907,402,8822,-17395,-26901
2025-10-11 16:13:01.218,-114,-667,479,1803,-25390,-19760
2025-10-11 16:13:01.219,-102,-533,591,-30301,-32165,-22018
2025-10-11 16:13:01.219,-61,-397,762,25514,22812,32531
2025-10-11 16:13:01.267,-52,-84,797,13963,21713,19409
2025-10-11 16:13:01.267,-99,-220,873,31220,23727,15136
2025-10-11 16:13:01.316,-47,-311,981,31586,23788,17089
2025-10-11 16:13:01.317,-3,-83,954,18525,29099,12084
2025-10-11 16:13:01.317,-23,100,907,31326,-20568,-244
2025-10-11 16:13:01.365,-68,-38,980,-778,-9643,1220
2025-10-11 16:13:01.373,-22,-251,1063,26077,-9643,7324
2025-10-11 16:13:01.414,-34,-34,1024,-19012,-14648,9277
2025-10-11 16:13:01.416,-47,100,993,31143,-11962,4821
2025-10-11 16:13:01.417,-19,94,1056,10147,-11962,1586
2025-10-11 16:13:01.462,20,184,1034,-7004,-12817,1953
2025-10-11 16:13:01.462,26,264,1004,24414,-7873,610
2025-10-11 16:13:01.510,36,222,997,-8361,-3295,1464
2025-10-11 16:13:01.511,24,111,1008,-20629,-427,732
2025-10-11 16:13:01.559,11,27,1022,-9033,671,122
2025-10-11 16:13:01.560,-7,98,1006,-183,-244,-1831
2025-10-11 16:13:01.561,-29,156,983,-9460,305,-5615
2025-10-11 16:13:01.630,-47,120,1000,-22766,-366,-5126
2025-10-11 16:13:01.630,-40,46,1037,-25146,-4516,-4516
2025-10-11 16:13:01.657,-11,-10,1019,-10986,-4028,-2319
2025-10-11 16:13:01.660,2,20,1019,-1953,-1403,366
2025-10-11 16:13:01.660,2,70,1024,-1220,61,-122
2025-10-11 16:13:01.706,-2,99,1013,-8422,305,-1098
2025-10-11 16:13:01.707,0,72,1020,-13000,-549,-610
2025-10-11 16:13:01.754,-3,30,1034,-11596,-3906,-1708
2025-10-11 16:13:01.755,8,23,1037,-6530,-5859,-671
2025-10-11 16:13:01.756,18,34,1022,-3173,-3295,-1220
2025-10-11 16:13:01.853,6,69,1010,-3479,1525,-793
2025-10-11 16:13:01.854,-15,62,1016,-5798,2990,-671
2025-10-11 16:13:01.856,-22,59,1028,-7141,-1647,-1098
2025-10-11 16:13:01.937,-10,43,1029,-7812,-3967,-2502
2025-10-11 16:13:01.937,7,20,1034,-6469,-4150,-3051
2025-10-11 16:13:01.937,7,14,1036,-4089,-2319,-2075
2025-10-11 16:13:01.970,17,32,1033,-3967,1098,-1647
2025-10-11 16:13:01.971,19,33,1020,-6835,4272,-1892
2025-10-11 16:13:01.971,15,25,1013,-10559,4516,-2319
2025-10-11 16:13:01.971,-5,4,1010,-12329,2014,-1098
2025-10-11 16:13:02.012,-15,-23,1020,-9582,-1586,-2258
2025-10-11 16:13:02.012,-15,-14,1024,-5126,-3234,-2075
2025-10-11 16:13:02.047,-13,-5,1036,-3540,-1342,-610
2025-10-11 16:13:02.048,-8,8,1039,-6347,427,-183
2025-10-11 16:13:02.095,-4,-5,1036,-7995,1892,61
2025-10-11 16:13:02.096,-5,-13,1032,-6103,1647,427
2025-10-11 16:13:02.097,-7,-12,1022,-4882,1159,-61
2025-10-11 16:13:02.145,-5,-29,1027,183,-61,61
2025-10-11 16:13:02.146,0,-1,1022,3906,-1159,-183
2025-10-11 16:13:02.193,1,19,1009,305,-122,-183
2025-10-11 16:13:02.194,-4,0,1020,-2685,0,-366
2025-10-11 16:13:02.194,-5,-13,1025,-1464,-1220,183
2025-10-11 16:13:02.254,0,-5,1022,-366,-1525,305
2025-10-11 16:13:02.254,-1,-3,1030,305,-732,-305
2025-10-11 16:13:02.291,-2,8,1036,-1098,0,-305
2025-10-11 16:13:02.296,0,0,1041,-3356,244,-1098
2025-10-11 16:13:02.339,0,-20,1041,-2441,-183,-671
2025-10-11 16:13:02.340,3,-28,1040,183,-854,-366
2025-10-11 16:13:02.341,3,-19,1039,3173,-793,-427
2025-10-11 16:13:02.388,6,7,1029,2563,0,-366
2025-10-11 16:13:02.389,13,14,1027,-732,2258,-610
2025-10-11 16:13:02.437,-1,-10,1028,-2014,2807,-1037
2025-10-11 16:13:02.438,-11,-28,1037,1342,-427,-305
2025-10-11 16:13:02.439,-2,6,1030,732,-915,-244
2025-10-11 16:13:02.486,5,8,1027,-3051,1098,-1525
2025-10-11 16:13:02.487,-1,-13,1027,-3906,2563,-671
2025-10-11 16:13:02.538,-10,-37,1039,-1586,1220,-915
2025-10-11 16:13:02.538,-8,-15,1036,-427,-427,-488
2025-10-11 16:13:02.538,-4,-15,1031,-1647,61,-183
2025-10-11 16:13:02.584,5,-17,1032,-1281,1342,-488
2025-10-11 16:13:02.585,-6,-6,1028,-2990,1647,-671
2025-10-11 16:13:02.632,-9,-25,1029,-2258,1281,-610
2025-10-11 16:13:02.633,-10,-12,1028,61,244,-854
2025-10-11 16:13:02.633,-7,-5,1032,-1525,366,-1281
2025-10-11 16:13:02.680,-7,-18,1033,-2319,1159,-1647
2025-10-11 16:13:02.681,-13,-31,1030,-2563,1525,-1342
2025-10-11 16:13:02.730,-7,-37,1026,-1525,1464,0
2025-10-11 16:13:02.731,-4,-30,1019,-2441,1281,732
2025-10-11 16:13:02.731,-3,-38,1015,-2075,1953,854
2025-10-11 16:13:02.836,-10,-29,1009,-1464,2136,732
2025-10-11 16:13:02.836,-20,-24,1009,-1831,1281,610
2025-10-11 16:13:02.836,-22,-33,1017,-61,-732,366
2025-10-11 16:13:02.836,-15,-25,1016,2990,-1342,-488
2025-10-11 16:13:02.877,-6,-9,1007,-366,671,-488
2025-10-11 16:13:02.877,-13,-33,1009,-3234,1953,366
2025-10-11 16:13:02.878,-14,-53,1019,-488,122,793
2025-10-11 16:13:02.924,-12,-38,1013,3234,-1953,732
2025-10-11 16:13:02.925,-4,-23,1010,3173,-2075,122
2025-10-11 16:13:02.973,-3,-23,1011,1281,-1708,-305
2025-10-11 16:13:02.973,-11,-37,1023,427,-1586,122
2025-10-11 16:13:02.974,-18,-34,1038,1037,-2380,427
2025-10-11 16:13:03.021,-16,-25,1037,61,-2380,1220
2025-10-11 16:13:03.022,-10,-27,1035,-244,183,2136
2025-10-11 16:13:03.070,-4,-23,1036,366,915,1708
2025-10-11 16:13:03.071,-2,-16,1032,1831,244,1220
2025-10-11 16:13:03.124,-3,-12,1031,2563,-1037,732
2025-10-11 16:13:03.124,-2,-8,1032,2319,-2197,0
2025-10-11 16:13:03.124,0,-4,1034,1220,-2258,-122
2025-10-11 16:13:03.169,2,-8,1032,-122,-549,-366
2025-10-11 16:13:03.170,-4,-3,1030,-2258,1037,-122
2025-10-11 16:13:03.217,-12,-22,1031,-2807,1159,366
2025-10-11 16:13:03.217,-7,-30,1036,244,-183,122
2025-10-11 16:13:03.218,-5,-4,1023,-2197,-61,-427
2025-10-11 16:13:03.266,-4,-23,1016,-4577,1403,-915
2025-10-11 16:13:03.267,-10,-44,1019,-2807,1403,-427
2025-10-11 16:13:03.315,-16,-46,1023,610,-976,183
2025-10-11 16:13:03.315,-10,-22,1022,2075,-2014,366
2025-10-11 16:13:03.316,-2,-8,1021,-305,-915,-610
2025-10-11 16:13:03.385,0,-16,1021,-2685,732,-1220
2025-10-11 16:13:03.386,-9,-38,1030,-2868,793,-1464
2025-10-11 16:13:03.414,-9,-45,1031,-1220,-793,-671
2025-10-11 16:13:03.414,-5,-35,1030,-1220,-1037,732
2025-10-11 16:13:03.414,-4,-28,1027,-1525,1037,854
2025-10-11 16:13:03.461,-6,-17,1029,-1281,1037,-366
2025-10-11 16:13:03.462,-7,-17,1023,-2136,732,-1342
2025-10-11 16:13:03.509,-9,-35,1025,-2075,-61,-1159
2025-10-11 16:13:03.510,-12,-37,1023,-1281,-1098,-488
2025-10-11 16:13:03.558,-1,-31,1022,-1281,-305,-122
2025-10-11 16:13:03.559,-4,-23,1019,-2075,915,-793
2025-10-11 16:13:03.559,-9,-36,1021,-2075,915,-1159
2025-10-11 16:13:03.607,-12,-47,1028,-122,-976,-732
2025-10-11 16:13:03.608,-5,-36,1029,549,-1464,-549
2025-10-11 16:13:03.675,0,-29,1024,-1770,1098,-671
2025-10-11 16:13:03.675,-3,-34,1022,-3051,2014,-122
2025-10-11 16:13:03.675,-15,-53,1021,-2502,854,-305
2025-10-11 16:13:03.706,-11,-52,1020,-183,-732,-366
2025-10-11 16:13:03.706,-6,-33,1014,-854,-427,-854
2025-10-11 16:13:03.754,-5,-47,1016,-2136,61,-793
2025-10-11 16:13:03.754,-12,-60,1019,-1281,-366,-61
2025-10-11 16:13:03.755,-13,-52,1017,-549,-732,305
2025-10-11 16:13:03.802,-8,-50,1023,-610,-488,549
2025-10-11 16:13:03.802,-7,-41,1023,-671,-61,427
2025-10-11 16:13:03.851,-10,-40,1021,-3051,0,549
2025-10-11 16:13:03.852,-10,-60,1024,-2319,-244,732
2025-10-11 16:13:03.852,-5,-58,1030,-854,-305,854
2025-10-11 16:13:03.899,-1,-48,1031,-427,-427,610
2025-10-11 16:13:03.900,-3,-38,1027,-2197,183,671
2025-10-11 16:13:03.949,-8,-41,1034,-4089,427,854
2025-10-11 16:13:03.950,-3,-42,1035,-6164,1281,1037
2025-10-11 16:13:03.998,-4,-41,1035,-8361,2990,1281
2025-10-11 16:13:03.999,-6,-42,1034,-11657,3479,1525
2025-10-11 16:13:03.999,-2,19,1003,-24047,4821,-488
2025-10-11 16:13:04.045,-10,173,983,-31387,5432,-4760
2025-10-11 16:13:04.047,-5,-3,988,-17609,4516,-7629
2025-10-11 16:13:04.095,-1,-217,981,-30427,5065,-6408
2025-10-11 16:13:04.095,-3,-355,976,-17121,7141,-2990
2025-10-11 16:13:04.096,-22,-337,968,-10773,7629,-2990
2025-10-11 16:13:04.143,-16,-361,945,-14313,7995,-2746
2025-10-11 16:13:04.143,-23,-309,926,-32563,8605,-3967
2025-10-11 16:13:04.191,-19,-392,888,9597,9277,-2563
2025-10-11 16:13:04.192,-22,-504,843,-2488,12084,-1220
2025-10-11 16:13:04.193,-28,-575,814,-14024,12695,-1831
2025-10-11 16:13:04.254,-28,-566,701,9032,12451,-1220
2025-10-11 16:13:04.254,-11,-610,582,-31129,16357,7019
2025-10-11 16:13:04.290,-19,-708,444,-4107,20874,15197
2025-10-11 16:13:04.290,-35,-799,301,19071,21423,17272
2025-10-11 16:13:04.338,-33,-982,83,11075,25390,24536
2025-10-11 16:13:04.340,-70,-1156,-11,-22051,29418,31860
2025-10-11 16:13:04.340,-80,-1267,-68,-16847,-31601,32287
2025-10-11 16:13:04.387,-116,-1156,-89,-23606,30212,19775
2025-10-11 16:13:04.387,-109,-1062,-161,27663,26550,13427
2025-10-11 16:13:04.435,-92,-1053,-201,6439,23132,4455
2025-10-11 16:13:04.436,-89,-973,-253,-8133,23071,-1098
2025-10-11 16:13:04.437,-97,-975,-269,17258,23620,-1037
2025-10-11 16:13:04.484,-88,-996,-272,-22155,21606,-1403
2025-10-11 16:13:04.484,-96,-940,-275,-8178,16357,-5432
2025-10-11 16:13:04.541,-89,-848,-283,-16174,9216,-10864
2025-10-11 16:13:04.541,-64,-868,-301,-26184,4943,-11352
2025-10-11 16:13:04.541,-58,-959,-311,-23193,5310,-7629
2025-10-11 16:13:04.582,-77,-961,-305,-13366,6835,-3356
2025-10-11 16:13:04.582,-66,-942,-307,-6347,6896,-2624
2025-10-11 16:13:04.631,-65,-965,-308,2502,6164,-5798
2025-10-11 16:13:04.631,-66,-959,-290,13916,1281,-4943
2025-10-11 16:13:04.679,-63,-971,-291,20141,610,-2807
2025-10-11 16:13:04.680,-59,-937,-273,18798,671,-2746
2025-10-11 16:13:04.681,-55,-925,-265,10375,305,-4211
2025-10-11 16:13:04.728,-48,-971,-267,7812,1586,-3479
2025-10-11 16:13:04.729,-54,-971,-266,9155,2746,-2807
2025-10-11 16:13:04.777,-46,-969,-264,11413,2197,-1342
2025-10-11 16:13:04.778,-46,-950,-269,10070,549,-1647
2025-10-11 16:13:04.778,-45,-948,-262,8728,-1220,-1525
2025-10-11 16:13:04.828,-51,-947,-254,8605,-2685,-1647
2025-10-11 16:13:04.828,-43,-934,-261,5493,-1281,-1647
2025-10-11 16:13:04.874,-41,-933,-247,4089,610,-1220
2025-10-11 16:13:04.875,-61,-929,-249,-305,549,-2685
2025-10-11 16:13:04.877,-44,-968,-256,1037,793,-2441
2025-10-11 16:13:04.924,-54,-963,-257,3845,671,-2258
2025-10-11 16:13:04.924,-43,-925,-262,-793,-244,-2258
2025-10-11 16:13:04.972,-43,-933,-266,-7873,-305,-2746
2025-10-11 16:13:04.972,-40,-957,-270,-9338,610,-3417
2025-10-11 16:13:04.973,-43,-992,-280,-3234,1586,-3234
2025-10-11 16:13:05.020,-49,-1011,-279,7019,-14831,-1586
2025-10-11 16:13:05.021,-52,-951,-285,12145,-2380,-854
2025-10-11 16:13:05.069,-49,-972,-285,8728,-4211,427
2025-10-11 16:13:05.070,-49,-1022,-268,14160,-5737,3723
2025-10-11 16:13:05.122,-57,-1091,-257,32348,-5554,5554
2025-10-11 16:13:05.122,-38,-1039,-242,-19455,-4882,5981
2025-10-11 16:13:05.122,-49,-963,-221,-22385,-4821,5859
2025-10-11 16:13:05.167,-60,-971,-202,-29282,-4760,5798
2025-10-11 16:13:05.168,-64,-1041,-168,-21957,-4760,7019
2025-10-11 16:13:05.216,-68,-1046,-156,-3647,-3295,8728
2025-10-11 16:13:05.216,-91,-935,-123,-9079,-5310,2014
2025-10-11 16:13:05.217,-66,-949,-101,-31601,-7019,1342
2025-10-11 16:13:05.264,-46,-1004,-82,-26413,-4455,6896
2025-10-11 16:13:05.265,-58,-1018,-79,-13290,-1098,8361
2025-10-11 16:13:05.313,-65,-974,-63,-6149,-183,5554
2025-10-11 16:13:05.314,-76,-964,-28,-351,-2624,5676
2025-10-11 16:13:05.314,-94,-1013,-12,10330,-4577,4760
2025-10-11 16:13:05.364,-84,-969,18,15152,-6042,1831
2025-10-11 16:13:05.387,-78,-1100,30,-24261,-3784,6958
2025-10-11 16:13:05.461,-98,-1405,92,-930,976,15686
2025-10-11 16:13:05.461,-112,-1518,106,-227,-3173,28137
2025-10-11 16:13:05.462,-134,-994,118,-22107,-24475,30517
2025-10-11 16:13:05.509,-167,-766,250,-28149,26047,29907
2025-10-11 16:13:05.509,-149,-788,397,-31628,17075,-29099
2025-10-11 16:13:05.510,-114,-632,512,32015,8591,-21042
2025-10-11 16:13:05.557,-120,-293,630,-8878,-1358,-28732
2025-10-11 16:13:05.558,-108,18,734,30397,-9903,15380
2025-10-11 16:13:05.558,-84,120,845,-4653,-8926,-1770
2025-10-11 16:13:05.559,1,-40,966,2961,2365,-4638
2025-10-11 16:13:05.605,73,-116,963,-22064,21103,-6896
2025-10-11 16:13:05.606,64,-94,957,26810,-6347,-4821
2025-10-11 16:13:05.670,32,-175,1035,25833,-9460,1464
2025-10-11 16:13:05.670,15,-7,1000,19730,-9643,4211
2025-10-11 16:13:05.670,2,164,973,-14389,-8483,2990
2025-10-11 16:13:05.754,7,71,1007,21545,-8056,305
2025-10-11 16:13:05.754,23,-81,1023,25451,-8483,-1342
2025-10-11 16:13:05.754,9,-31,1002,-29465,-8178,-1220
2025-10-11 16:13:05.800,6,41,1015,-31784,-7202,0
2025-10-11 16:13:05.801,21,128,1013,14160,-5737,-2441
2025-10-11 16:13:05.801,17,137,1016,-13854,-3173,-4577
2025-10-11 16:13:05.802,15,35,1046,-28503,-2441,-3356
2025-10-11 16:13:05.849,20,-115,1066,-13366,-2197,-2807
2025-10-11 16:13:05.850,33,-48,1033,-2929,1159,-2014
2025-10-11 16:13:05.898,13,-18,1031,-5249,3356,-2136
2025-10-11 16:13:05.899,4,-24,1044,-7690,1403,-976
2025-10-11 16:13:05.900,14,-31,1043,-6225,-549,854
2025-10-11 16:13:05.955,13,-8,1035,-6469,-488,671
2025-10-11 16:13:05.956,22,-9,1030,-8789,732,-610
2025-10-11 16:13:06.000,5,-44,1036,-6896,976,-244
2025-10-11 16:13:06.000,0,-54,1044,-1586,-427,305
2025-10-11 16:13:06.000,25,-31,1038,1892,15319,61
2025-10-11 16:13:06.044,23,14,1018,-6164,3356,122
2025-10-11 16:13:06.045,6,-35,1028,-7141,3173,61
2025-10-11 16:13:06.093,4,-57,1041,-854,549,305
2025-10-11 16:13:06.094,6,-36,1036,4333,-1586,488
2025-10-11 16:13:06.095,22,-15,1029,5249,-1525,427
2025-10-11 16:13:06.142,24,9,1021,1586,793,-610
2025-10-11 16:13:06.142,14,-2,1030,-2441,2319,-915
2025-10-11 16:13:06.191,10,-38,1041,-1342,1464,-793
2025-10-11 16:13:06.191,10,-46,1039,2502,366,-183
2025-10-11 16:13:06.193,16,-26,1037,4699,244,549
2025-10-11 16:13:06.242,11,-12,1040,2868,1037,122
2025-10-11 16:13:06.242,12,8,1034,-366,1281,-793
2025-10-11 16:13:06.290,6,-11,1027,-4028,1953,-732
2025-10-11 16:13:06.291,5,-49,1034,-732,2380,-122
2025-10-11 16:13:06.337,4,-41,1044,4333,1098,488
2025-10-11 16:13:06.338,3,-24,1035,6042,915,1037
2025-10-11 16:13:06.338,8,-6,1031,5310,2380,1159
2025-10-11 16:13:06.434,3,14,1015,-793,4028,122
2025-10-11 16:13:06.434,0,-17,1022,-5187,3906,-122
2025-10-11 16:13:06.435,-3,-66,1031,-1220,1525,-61
2025-10-11 16:13:06.436,5,-10,1008,3967,61,1098
2025-10-11 16:13:06.483,5,1,1015,-305,2197,1098
2025-10-11 16:13:06.484,3,5,1013,-4211,3967,671
2025-10-11 16:13:06.484,-11,-40,1023,-3662,3173,244
2025-10-11 16:13:06.534,-2,-48,1031,3295,244,671
2025-10-11 16:13:06.535,-8,-2,1008,2502,0,1037
2025-10-11 16:13:06.535,-6,8,1008,-3295,1220,976
2025-10-11 16:13:06.581,-5,-16,1021,-5249,1159,549
2025-10-11 16:13:06.581,0,-45,1030,-671,61,61
2025-10-11 16:13:06.629,-5,-15,1022,2014,-549,366
2025-10-11 16:13:06.630,0,-5,1023,-2990,305,183
2025-10-11 16:13:06.678,0,-20,1024,-3601,1037,305
2025-10-11 16:13:06.678,0,-20,1020,-1586,854,-610
2025-10-11 16:13:06.679,-9,-10,1012,-1831,366,-732
2025-10-11 16:13:06.727,-11,-9,1011,-2380,-305,-244
2025-10-11 16:13:06.728,2,-11,1016,-2197,-427,-1159
2025-10-11 16:13:06.776,0,-11,1022,-1281,-1342,-2319
2025-10-11 16:13:06.777,-2,-23,1036,671,-2380,-2624
2025-10-11 16:13:06.778,2,-20,1027,366,-1831,-2868
2025-10-11 16:13:06.832,4,-21,1031,-1831,61,-1586
2025-10-11 16:13:06.832,4,-46,1036,-366,793,-1403
2025-10-11 16:13:06.875,0,-34,1027,1708,610,-1525
2025-10-11 16:13:06.875,-4,-13,1023,-183,183,-1586
2025-10-11 16:13:06.876,-2,-22,1025,-2624,61,-1953
2025-10-11 16:13:06.922,-5,-48,1028,-1708,-61,-1892
2025-10-11 16:13:06.923,-5,-44,1027,61,-305,-1525
2025-10-11 16:13:06.970,-4,-38,1027,0,-549,-1586
2025-10-11 16:13:06.971,-3,-29,1024,-1403,-183,-1892
2025-10-11 16:13:07.020,-3,-49,1027,-1647,183,-1647
2025-10-11 16:13:07.020,-9,-58,1021,-488,183,-793
2025-10-11 16:13:07.021,-7,-59,1029,2868,-366,-61
2025-10-11 16:13:07.068,0,-38,1021,1953,-305,0
2025-10-11 16:13:07.069,0,-41,1020,1708,732,-61
2025-10-11 16:13:07.122,-5,-52,1020,2624,549,671
2025-10-11 16:13:07.122,-9,-38,1018,2014,-183,915
2025-10-11 16:13:07.122,-11,-29,1014,305,-366,1403
2025-10-11 16:13:07.168,-4,-27,1018,-183,-244,976
2025-10-11 16:13:07.168,-6,-25,1012,305,0,671
2025-10-11 16:13:07.216,-12,-36,1015,915,-366,183
2025-10-11 16:13:07.216,-5,-35,1017,2685,-1220,-244
2025-10-11 16:13:07.216,0,-21,1022,2807,-1953,-244
2025-10-11 16:13:07.264,6,-15,1028,671,-1647,122
2025-10-11 16:13:07.264,8,-25,1038,-732,-976,-122
2025-10-11 16:13:07.312,3,-36,1040,183,-549,-122
2025-10-11 16:13:07.312,0,-32,1037,1342,-549,-244
2025-10-11 16:13:07.313,-1,-26,1035,1770,-1220,-183
2025-10-11 16:13:07.361,-1,-20,1034,1831,-1831,-610
2025-10-11 16:13:07.361,0,-15,1034,1159,-1464,-732
2025-10-11 16:13:07.435,2,-11,1029,-1098,183,-793
2025-10-11 16:13:07.435,-4,-36,1033,-1403,1281,-549
2025-10-11 16:13:07.461,-5,-39,1041,2746,-1037,-183
2025-10-11 16:13:07.461,3,-19,1035,2136,-1159,-488
2025-10-11 16:13:07.461,7,-16,1033,-122,671,-976
2025-10-11 16:13:07.556,1,-32,1031,-1953,1953,-976
2025-10-11 16:13:07.557,0,-45,1030,-1586,1708,-366
2025-10-11 16:13:07.557,0,-42,1025,122,793,-61
2025-10-11 16:13:07.605,5,-14,1017,-976,549,-915
2025-10-11 16:13:07.605,-5,-20,1016,-3295,488,-1342
2025-10-11 16:13:07.605,-4,-49,1030,-1708,-122,-1403
2025-10-11 16:13:07.606,0,-43,1024,-488,183,-1098
2025-10-11 16:13:07.653,1,-45,1015,-2380,2319,-671
2025-10-11 16:13:07.654,-7,-64,1019,366,732,61
2025-10-11 16:13:07.654,-5,-49,1021,4028,-1708,183
2025-10-11 16:13:07.722,0,-17,1019,2929,-2197,-610
2025-10-11 16:13:07.722,2,-21,1012,-671,366,-915
2025-10-11 16:13:07.753,-5,-61,1027,1342,1464,-244
2025-10-11 16:13:07.753,-5,-53,1032,5920,-976,976
2025-10-11 16:13:07.799,0,-20,1028,5310,-2136,1464
2025-10-11 16:13:07.801,4,0,1026,1647,-793,854
2025-10-11 16:13:07.802,0,-10,1033,-183,976,-305
2025-10-11 16:13:07.848,-2,-30,1037,2502,-427,-1098
2025-10-11 16:13:07.849,4,-27,1030,2868,-793,-1342
2025-10-11 16:13:07.897,6,-20,1027,732,61,-427
2025-10-11 16:13:07.898,2,-28,1030,-122,1159,488
2025-10-11 16:13:07.898,0,-30,1036,671,793,122
2025-10-11 16:13:07.946,-1,-29,1029,1220,549,-244
2025-10-11 16:13:07.947,-11,-23,1025,1586,1037,-305
2025-10-11 16:13:08.008,-8,-18,1024,1159,976,-366
2025-10-11 16:13:08.008,-9,-26,1027,732,793,-793
2025-10-11 16:13:08.008,-12,-36,1025,2319,-61,-1098
2025-10-11 16:13:08.052,-7,-28,1013,854,244,-488
2025-10-11 16:13:08.052,-1,-22,1013,-1220,915,0
2025-10-11 16:13:08.092,0,-31,1015,-2502,488,-610
2025-10-11 16:13:08.093,-1,-49,1013,-671,-305,-549
2025-10-11 16:13:08.093,-8,-40,1016,549,-1037,488
2025-10-11 16:13:08.141,-2,-23,1022,-549,-1037,671
2025-10-11 16:13:08.142,0,-18,1025,-1831,122,244
2025-10-11 16:13:08.238,-5,-28,1025,-1953,732,-122
2025-10-11 16:13:08.239,-10,-45,1023,-488,-122,0
2025-10-11 16:13:08.239,-7,-39,1017,1342,-1281,1220
2025-10-11 16:13:08.240,-3,-21,1022,-244,-1037,366
2025-10-11 16:13:08.293,3,-32,1020,-183,-610,-183
2025-10-11 16:13:08.293,-6,-36,1023,915,-488,-122
2025-10-11 16:13:08.293,-2,-38,1025,1220,-915,732
2025-10-11 16:13:08.341,3,-29,1020,488,-793,549
2025-10-11 16:13:08.341,-1,-25,1016,-427,-549,488
2025-10-11 16:13:08.341,-7,-22,1018,-549,-1159,732
2025-10-11 16:13:08.384,-6,-26,1020,-244,-1525,610
2025-10-11 16:13:08.385,0,-21,1028,244,-1098,488
2025-10-11 16:13:08.433,1,-29,1030,1098,-732,-244
2025-10-11 16:13:08.434,3,-19,1032,61,-1098,-244
2025-10-11 16:13:08.434,2,-22,1027,-1708,-793,-122
2025-10-11 16:13:08.482,4,-32,1034,-1403,-610,122
2025-10-11 16:13:08.483,0,-33,1038,-671,-793,-366
2025-10-11 16:13:08.531,2,-34,1039,305,-610,0
2025-10-11 16:13:08.532,2,-29,1043,854,-183,61
2025-10-11 16:13:08.533,1,-17,1042,732,183,-61
2025-10-11 16:13:08.580,3,-19,1041,-1159,976,183
2025-10-11 16:13:08.583,3,-39,1038,-1281,1464,488
2025-10-11 16:13:08.629,1,-29,1030,-976,2014,1770
2025-10-11 16:13:08.629,-31,-29,1024,-1708,2014,1953
2025-10-11 16:13:08.677,-5,-21,1026,-183,1342,2075
2025-10-11 16:13:08.678,-3,-7,1022,-915,976,549
2025-10-11 16:13:08.678,-1,-14,1026,-671,1281,-732
2025-10-11 16:13:08.726,-5,-32,1032,1220,793,-1342
2025-10-11 16:13:08.727,3,-28,1029,2258,183,-1403
2025-10-11 16:13:08.774,10,-14,1023,-61,1220,-1220
2025-10-11 16:13:08.775,5,-21,1024,-2197,2380,-1953
2025-10-11 16:13:08.776,-4,-28,1029,-2929,2075,-2563
2025-10-11 16:13:08.882,-10,-32,1029,-4150,1586,-2075
2025-10-11 16:13:08.882,-4,-40,1035,-5859,2136,-1647
2025-10-11 16:13:08.882,-6,-17,1036,-11108,3479,-1464
2025-10-11 16:13:08.882,-10,-11,1040,-22827,5432,-854
2025-10-11 16:13:08.921,0,-13,1039,25436,7568,-610
2025-10-11 16:13:08.922,3,-32,1031,229,8728,-1342
2025-10-11 16:13:08.923,-12,-107,1024,-22842,7751,1525
2025-10-11 16:13:08.970,-14,-197,1045,-32425,5554,8483
2025-10-11 16:13:08.970,-3,-240,1061,-30899,5310,13122
2025-10-11 16:13:09.019,-7,-194,1026,30792,11596,15014
2025-10-11 16:13:09.019,-15,-165,977,14373,25085,10314
2025-10-11 16:13:09.020,-84,-236,922,-15229,26855,8300
2025-10-11 16:13:09.068,-84,-340,916,-25178,21362,9277
2025-10-11 16:13:09.068,-64,-411,858,-30732,18676,8666
2025-10-11 16:13:09.116,-53,-367,789,15700,20935,9460
2025-10-11 16:13:09.116,-82,-274,686,30272,25329,7934
2025-10-11 16:13:09.117,-107,-368,592,-29848,27587,8178
2025-10-11 16:13:09.167,-95,-663,509,10725,27893,7202
2025-10-11 16:13:09.167,-88,-885,451,26838,28442,4272
2025-10-11 16:13:09.214,-102,-842,355,-21913,29907,2868
2025-10-11 16:13:09.215,-139,-769,290,-32350,25207,-4150
2025-10-11 16:13:09.215,-99,-901,169,15791,20568,-4150
2025-10-11 16:13:09.262,-75,-1136,30,-14101,29357,3906
2025-10-11 16:13:09.263,-75,-1236,-18,-22386,-22141,1098
2025-10-11 16:13:09.359,-87,-1183,-19,26015,-12619,-7690
2025-10-11 16:13:09.360,-83,-1040,-90,-14252,-9567,-14648
2025-10-11 16:13:09.361,-71,-976,-184,-2900,-7126,-13244
2025-10-11 16:13:09.361,-84,-1043,-239,10650,-7187,-8850
2025-10-11 16:13:09.459,-81,-1196,-276,-15701,-8835,-4089
2025-10-11 16:13:09.459,-119,-1156,-257,24277,-18967,-5554
2025-10-11 16:13:09.459,-108,-1003,-252,-20568,23803,-2990
2025-10-11 16:13:09.459,-66,-950,-273,-17089,13793,-1525
2025-10-11 16:13:09.506,-78,-1017,-253,-8422,7690,-3845
2025-10-11 16:13:09.507,-63,-1014,-259,5737,4333,-3906
2025-10-11 16:13:09.507,-48,-953,-274,11169,3906,-1159
2025-10-11 16:13:09.509,-56,-912,-260,2502,2868,-1037
2025-10-11 16:13:09.554,-72,-935,-246,-5798,244,-1770
2025-10-11 16:13:09.555,-50,-990,-250,-793,61,-1403
2025-10-11 16:13:09.555,-28,-993,-264,13061,3906,976
2025-10-11 16:13:09.603,-57,-926,-261,14587,5798,0
2025-10-11 16:13:09.604,-75,-866,-254,-3540,1159,-2990
2025-10-11 16:13:09.652,-51,-982,-270,-8239,854,-854
2025-10-11 16:13:09.652,-53,-1028,-262,11413,2319,2441
2025-10-11 16:13:09.653,-39,-997,-249,-27634,2197,4150
2025-10-11 16:13:09.715,-64,-862,-241,-30014,-610,-1953
2025-10-11 16:13:09.715,-48,-803,-244,6713,-1586,-7873
2025-10-11 16:13:09.756,-34,-946,-260,-6103,2075,-3723
2025-10-11 16:13:09.756,-59,-1046,-260,8178,6164,1403
2025-10-11 16:13:09.798,-50,-1042,-260,32409,6530,5310
2025-10-11 16:13:09.799,-83,-967,-244,-25009,610,2685
2025-10-11 16:13:09.799,-72,-970,-233,-28793,-6530,-305
2025-10-11 16:13:09.847,-46,-1031,-216,-26901,-5432,4821
2025-10-11 16:13:09.847,-50,-1120,-184,-3952,-2441,10314
2025-10-11 16:13:09.896,-75,-1219,-139,-21209,-2502,19409
2025-10-11 16:13:09.897,-90,-1335,-111,-15212,-4882,27526
2025-10-11 16:13:09.897,-92,-1322,-90,-12816,-11352,30517
2025-10-11 16:13:09.945,-100,-1252,-55,-27998,-21667,-29648
2025-10-11 16:13:09.945,-116,-1273,28,18267,31723,-21774
2025-10-11 16:13:10.043,-152,-1188,130,-8756,17685,-14267
2025-10-11 16:13:10.043,-181,-845,228,-4667,5356,-4074
2025-10-11 16:13:10.044,-171,-720,371,-31644,-6607,-8713
2025-10-11 16:13:10.044,-165,-640,543,4656,-9659,-19455
2025-10-11 16:13:10.091,-117,-522,616,7830,-6790,-30746
2025-10-11 16:13:10.091,-141,-327,697,-7612,-3616,21606
2025-10-11 16:13:10.092,-108,-176,794,-30378,1877,13671
2025-10-11 16:13:10.093,-67,78,867,-9764,4623,6713
2025-10-11 16:13:10.140,-20,225,884,-10024,10849,-2868
2025-10-11 16:13:10.141,11,164,946,3693,23544,-5249
2025-10-11 16:13:10.188,12,-80,1016,-1190,-32104,-6713
2025-10-11 16:13:10.189,59,-45,1044,17060,-29907,-6958
2025-10-11 16:13:10.237,32,120,965,7233,-20568,-6530
2025-10-11 16:13:10.238,56,264,947,9293,-12268,-5554
2025-10-11 16:13:10.238,59,267,927,28503,-4333,-3234
2025-10-11 16:13:10.288,13,152,908,-549,2929,-3356
2025-10-11 16:13:10.288,-44,76,927,-10498,2136,-915
2025-10-11 16:13:10.337,-73,34,990,-6530,-7507,1098
2025-10-11 16:13:10.337,-47,101,984,-5554,-13427,1708
2025-10-11 16:13:10.339,-19,169,975,-15014,-9948,122
2025-10-11 16:13:10.384,-6,132,1026,-25756,-5859,-2197
2025-10-11 16:13:10.384,-1,73,1071,-29052,-5371,-2441
2025-10-11 16:13:10.432,25,22,1080,-22338,-3173,2319
2025-10-11 16:13:10.433,30,65,1082,-8911,-1403,3784
2025-10-11 16:13:10.434,35,117,1092,-9521,-2197,3845
2025-10-11 16:13:10.481,41,142,1084,-15625,-1708,2502
2025-10-11 16:13:10.481,36,110,1077,-18432,1220,2075
2025-10-11 16:13:10.530,31,49,1096,-9399,1647,2075
2025-10-11 16:13:10.530,29,61,1078,2746,1464,2136
2025-10-11 16:13:10.531,34,115,1049,5676,2990,2441
2025-10-11 16:13:10.585,14,147,1028,-732,4577,2136
2025-10-11 16:13:10.585,8,131,1028,-5981,4821,854
2025-10-11 16:13:10.628,12,104,1031,-7263,1770,-1708
2025-10-11 16:13:10.628,21,57,1003,-122,2868,-1281
2025-10-11 16:13:10.675,35,72,980,1403,7141,-915
2025-10-11 16:13:10.676,30,67,975,-4821,10498,-1464
2025-10-11 16:13:10.677,5,57,982,-11596,9826,-244
2025-10-11 16:13:10.724,-14,40,989,-13427,5859,1220
2025-10-11 16:13:10.725,-26,35,996,-11108,1403,854
2025-10-11 16:13:10.773,-29,62,1002,-8789,-1708,793
2025-10-11 16:13:10.774,-17,77,1011,-11535,-2563,-671
2025-10-11 16:13:10.774,-11,58,1027,-13610,-1831,-2624
2025-10-11 16:13:10.842,-16,46,1034,-13610,-1098,-2258
2025-10-11 16:13:10.842,-7,4,1048,-6774,-854,-3112
2025-10-11 16:13:10.873,-2,11,1048,-4272,-305,-3051
2025-10-11 16:13:10.873,0,19,1056,-4455,-732,-2685
2025-10-11 16:13:10.873,-2,21,1045,-6469,-549,-2136
2025-10-11 16:13:10.920,0,-1,1046,-6591,610,-427
2025-10-11 16:13:10.920,-2,-7,1045,-3173,1464,244
2025-10-11 16:13:10.968,-2,13,1037,-2014,1892,-61
2025-10-11 16:13:10.968,-10,25,1025,-1953,1770,122
2025-10-11 16:13:11.017,-11,34,1021,-5737,854,0
2025-10-11 16:13:11.018,-11,26,1017,-11657,1159,915
2025-10-11 16:13:11.018,30,-24,1034,-9399,1281,915
2025-10-11 16:13:11.066,2,-13,1026,-5371,1525,549
2025-10-11 16:13:11.067,-3,0,1019,-8117,1586,-427
2025-10-11 16:13:11.164,0,-14,1019,-10681,2075,-488
2025-10-11 16:13:11.164,-6,-29,1020,-8972,2685,976
2025-10-11 16:13:11.164,-15,-24,1020,-7141,2380,976
2025-10-11 16:13:11.165,-18,-21,1024,-4333,427,732
2025-10-11 16:13:11.212,-15,-2,1017,-1220,-427,-427
2025-10-11 16:13:11.212,-10,4,1016,-1037,-610,-1098
2025-10-11 16:13:11.213,-10,-7,1019,-1037,-793,-1525
2025-10-11 16:13:11.213,-10,-22,1032,2319,-1159,-1708
2025-10-11 16:13:11.260,-9,-1,1029,2685,-1037,-1647
2025-10-11 16:13:11.261,-3,2,1024,-244,-427,-1953
2025-10-11 16:13:11.309,-2,-18,1023,-732,-183,-1525
2025-10-11 16:13:11.310,-8,-21,1029,488,-732,-1647
2025-10-11 16:13:11.358,-7,-6,1032,122,-1159,-2441
2025-10-11 16:13:11.359,-8,-10,1033,-915,-1342,-2990
2025-10-11 16:13:11.359,-5,-25,1036,-1464,-244,-2258
2025-10-11 16:13:11.409,-8,-36,1039,-1220,122,-1892
2025-10-11 16:13:11.409,-10,-33,1034,671,1220,-366
2025-10-11 16:13:11.456,-10,-5,1036,-610,1342,-1464
2025-10-11 16:13:11.457,-5,-11,1026,-2868,1770,-1586
2025-10-11 16:13:11.458,-11,-37,1021,-2258,2441,-1708
2025-10-11 16:13:11.505,-18,-32,1024,-1281,1647,-1037
2025-10-11 16:13:11.505,-12,-28,1029,-1220,549,-1464
2025-10-11 16:13:11.553,-11,-31,1030,-488,305,-1159
2025-10-11 16:13:11.553,-19,-23,1028,-1586,610,-671
2025-10-11 16:13:11.554,-18,-22,1032,-3295,1037,-854
2025-10-11 16:13:11.602,-23,-31,1041,-1770,1098,-793
2025-10-11 16:13:11.603,-10,-34,1036,915,1831,-1586
2025-10-11 16:13:11.651,-29,-28,1010,0,3112,-732
2025-10-11 16:13:11.651,-7,-45,1001,-732,2624,-244
2025-10-11 16:13:11.652,-17,-39,1001,-366,671,671
2025-10-11 16:13:11.699,-25,-24,1006,-671,-1403,122
2025-10-11 16:13:11.704,-21,-25,1013,244,-1892,-793
2025-10-11 16:13:11.749,-11,-18,1019,1403,-1037,-1220
2025-10-11 16:13:11.750,-12,-17,1016,-366,305,-1342
2025-10-11 16:13:11.797,-9,-37,1015,-1159,732,-1220
2025-10-11 16:13:11.797,-15,-33,1020,549,-549,-610
2025-10-11 16:13:11.798,-25,-15,1024,122,-2502,-1281
2025-10-11 16:13:11.846,-14,-11,1030,-1098,-1159,-1892
2025-10-11 16:13:11.846,-3,-25,1032,-2258,732,-2746
2025-10-11 16:13:11.894,-9,-42,1033,-1159,854,-1525
2025-10-11 16:13:11.895,-8,-38,1026,-793,183,-732
2025-10-11 16:13:11.896,-9,-16,1018,-2990,549,-305
2025-10-11 16:13:11.969,-20,-23,1023,-4333,732,-366
2025-10-11 16:13:11.969,-14,-40,1025,-2258,61,-1342
2025-10-11 16:13:11.995,-4,-32,1012,366,305,-1953
2025-10-11 16:13:11.995,-14,-28,1005,-915,305,-1708
2025-10-11 16:13:11.996,-21,-42,1010,-2441,-2380,-1281
2025-10-11 16:13:12.041,-15,-49,1011,-1220,-2319,-1220
2025-10-11 16:13:12.042,-12,-45,1019,-427,-1525,-915
2025-10-11 16:13:12.089,-14,-52,1028,854,-1159,-1098
2025-10-11 16:13:12.090,-16,-40,1033,976,-1708,-1647
2025-10-11 16:13:12.138,-5,-40,1028,183,-2319,-2441
2025-10-11 16:13:12.138,-6,-53,1020,-610,-2563,-1770
2025-10-11 16:13:12.139,-10,-55,1021,-1037,-2807,0
2025-10-11 16:13:12.187,-5,-55,1026,-1098,-1953,976
2025-10-11 16:13:12.188,-3,-46,1030,0,-610,793
2025-10-11 16:13:12.273,-13,-45,1032,1831,-1220,-61
2025-10-11 16:13:12.274,-12,-26,1020,915,-2075,-1037
2025-10-11 16:13:12.274,-5,-34,1016,-183,-1708,-915
2025-10-11 16:13:12.286,-15,-52,1030,366,-1708,-183
2025-10-11 16:13:12.290,-10,-49,1038,2197,-2258,122
2025-10-11 16:13:12.344,-3,-22,1030,183,-1098,-305
2025-10-11 16:13:12.344,-6,-38,1030,-854,0,-488
2025-10-11 16:13:12.344,-9,-52,1033,1159,-732,-61
2025-10-11 16:13:12.382,-15,-43,1048,2563,-2319,427
2025-10-11 16:13:12.383,4,-38,1059,4211,-2197,488
2025-10-11 16:13:12.431,19,-13,1045,2746,2502,-671
2025-10-11 16:13:12.431,7,-46,1038,-3173,2807,-61
2025-10-11 16:13:12.480,0,-72,1032,610,1525,915
2025-10-11 16:13:12.480,-15,-45,1038,3967,-427,1403
2025-10-11 16:13:12.480,-6,-5,1041,1403,-854,549
2025-10-11 16:13:12.528,-3,-9,1052,-1831,1220,-915
2025-10-11 16:13:12.528,-5,-43,1057,0,2258,-1892
2025-10-11 16:13:12.586,-9,-34,1044,61,2197,-854
2025-10-11 16:13:12.587,13,-33,1027,-3662,3784,244
2025-10-11 16:13:12.587,13,-44,1013,-5676,5737,366
2025-10-11 16:13:12.630,-20,-59,1017,-4699,2441,793
2025-10-11 16:13:12.630,-17,-46,1011,732,793,915
2025-10-11 16:13:12.675,-6,-21,1003,-244,2441,0
2025-10-11 16:13:12.676,-10,-25,1002,-2502,3723,-183
2025-10-11 16:13:12.676,-15,-56,1008,-732,2197,-488
2025-10-11 16:13:12.723,-15,-54,1006,1708,183,-366
2025-10-11 16:13:12.723,-22,-34,1008,122,-915,-427
2025-10-11 16:13:12.772,-12,-21,1013,-3601,-122,-122
2025-10-11 16:13:12.772,-11,-30,1013,-7080,2319,-1159
2025-10-11 16:13:12.773,-19,-48,1021,-8056,2929,-1770
2025-10-11 16:13:12.821,-25,-87,1032,-3601,-793,-732
2025-10-11 16:13:12.822,-21,-17,1023,-7019,-488,-427
2025-10-11 16:13:12.872,-4,-14,1018,-20324,2685,-183
2025-10-11 16:13:12.873,-8,-21,1021,31235,5432,183
2025-10-11 16:13:12.873,-21,12,1014,8713,5493,-1586
2025-10-11 16:13:12.921,-16,8,1007,-23575,5981,-5432
2025-10-11 16:13:12.921,-14,-27,994,11688,8789,-6774
2025-10-11 16:13:12.967,-15,-133,986,-7905,11779,-6958
2025-10-11 16:13:12.967,-24,-138,961,30959,14282,-11108
2025-10-11 16:13:13.015,-17,-181,925,-8287,15686,-12451
2025-10-11 16:13:13.016,-8,-334,883,23009,18432,-17456
2025-10-11 16:13:13.017,-5,-555,795,11351,22155,-14038
2025-10-11 16:13:13.065,-38,-587,736,10008,25146,-11779
2025-10-11 16:13:13.065,-48,-604,675,-5006,22949,-11718
2025-10-11 16:13:13.113,-57,-627,568,-31618,17944,-12145
2025-10-11 16:13:13.114,-34,-699,409,3950,17395,-9399
2025-10-11 16:13:13.114,-20,-945,309,1387,22460,-4760
2025-10-11 16:13:13.176,-8,-966,206,3523,26977,-9460
2025-10-11 16:13:13.176,-36,-905,55,-3435,31005,-5798
2025-10-11 16:13:13.218,-40,-981,-74,-5938,-32578,915
2025-10-11 16:13:13.218,-43,-1109,-176,-31313,-31418,2380
2025-10-11 16:13:13.259,-49,-1172,-223,29845,-32272,-1708
2025-10-11 16:13:13.260,-68,-1040,-244,11733,26245,-6286
2025-10-11 16:13:13.260,-54,-984,-281,-17975,18920,-10498
2025-10-11 16:13:13.308,-22,-1049,-341,31463,18371,-6042
2025-10-11 16:13:13.309,3,-1104,-394,24704,24169,-1586
2025-10-11 16:13:13.357,-10,-1052,-393,2441,26550,-3051
2025-10-11 16:13:13.358,-44,-947,-384,18554,18249,-3234
2025-10-11 16:13:13.358,-20,-912,-386,21240,7934,488
2025-10-11 16:13:13.406,-16,-896,-365,12268,-427,-366
2025-10-11 16:13:13.407,-11,-945,-329,8239,-5310,-427
2025-10-11 16:13:13.459,12,-967,-322,23437,-1037,1037
2025-10-11 16:13:13.459,3,-875,-326,16906,2990,-305
2025-10-11 16:13:13.459,-13,-935,-308,6286,2929,-854
2025-10-11 16:13:13.552,-17,-973,-307,9338,1037,1647
2025-10-11 16:13:13.552,-5,-976,-315,18066,61,2746
2025-10-11 16:13:13.553,-12,-950,-307,22033,-854,610
2025-10-11 16:13:13.554,-14,-929,-296,18554,-2197,-671
2025-10-11 16:13:13.601,4,-947,-304,16967,122,-122
2025-10-11 16:13:13.601,-1,-959,-296,18859,3295,1220
2025-10-11 16:13:13.602,-13,-943,-295,17944,2563,1831
2025-10-11 16:13:13.649,-9,-944,-299,15197,1586,1892
2025-10-11 16:13:13.650,-14,-947,-293,13183,244,366
2025-10-11 16:13:13.698,-17,-958,-288,12573,-610,61
2025-10-11 16:13:13.698,-14,-937,-283,9643,-671,671
2025-10-11 16:13:13.699,-7,-930,-279,4516,305,1831
2025-10-11 16:13:13.757,-12,-951,-267,3540,-122,1403
2025-10-11 16:13:13.758,-15,-963,-264,9155,-1220,1098
2025-10-11 16:13:13.796,-15,-941,-265,13183,-1892,-61
2025-10-11 16:13:13.796,-18,-913,-265,7019,-2502,-2319
2025-10-11 16:13:13.797,-9,-952,-274,1098,1647,-427
2025-10-11 16:13:13.844,-2,-994,-276,6774,4333,2441
2025-10-11 16:13:13.845,-30,-970,-266,11596,2685,2136
2025-10-11 16:13:13.893,-38,-965,-258,12939,-1647,-244
2025-10-11 16:13:13.894,-7,-944,-252,9399,-4760,-2075
2025-10-11 16:13:13.894,3,-913,-259,1892,-4211,-915
2025-10-11 16:13:13.942,7,-944,-249,366,-1037,1953
2025-10-11 16:13:13.943,-9,-957,-230,5737,1037,915
2025-10-11 16:13:13.990,-14,-911,-226,5065,427,-1647
2025-10-11 16:13:13.991,-11,-955,-230,4211,1342,-3723
2025-10-11 16:13:14.045,-12,-970,-238,7080,2807,-2136
2025-10-11 16:13:14.045,-13,-994,-245,6896,3723,549
2025-10-11 16:13:14.045,-14,-1057,-241,22766,4943,3540
2025-10-11 16:13:14.088,-19,-1166,-224,-2853,7324,9216
2025-10-11 16:13:14.089,-33,-1164,-183,-21026,5432,12329
2025-10-11 16:13:14.137,-29,-1225,-159,-32668,3540,17211
2025-10-11 16:13:14.137,-11,-1315,-114,-23924,3784,27343
2025-10-11 16:13:14.138,-50,-1380,-58,5510,1098,-28000
2025-10-11 16:13:14.186,-114,-1366,9,-25464,-10925,-17563
2025-10-11 16:13:14.186,-155,-1316,76,3788,-30212,-8041
2025-10-11 16:13:14.234,-123,-1079,142,13264,-687,1724
2025-10-11 16:13:14.235,-113,-660,284,-4864,-9598,7645
2025-10-11 16:13:14.236,-28,-377,474,9952,-11429,-3525
2025-10-11 16:13:14.306,-4,43,630,-16370,-9842,-25620
2025-10-11 16:13:14.306,6,396,717,-4560,2121,15136
2025-10-11 16:13:14.337,11,429,811,21348,21042,1525
2025-10-11 16:13:14.338,17,349,933,24750,-27832,2258
2025-10-11 16:13:14.338,23,332,960,-21087,-19226,-793
2025-10-11 16:13:14.381,17,253,991,9537,-14770,-1953
2025-10-11 16:13:14.381,9,192,1020,-9933,-16296,610
2025-10-11 16:13:14.430,30,235,984,17822,-11352,1586
2025-10-11 16:13:14.430,46,328,941,-18249,-610,-183
2025-10-11 16:13:14.478,4,181,985,30441,4577,-1647
2025-10-11 16:13:14.479,-30,102,989,-30273,2197,-427
2025-10-11 16:13:14.479,-17,84,989,-19836,-854,1525
2025-10-11 16:13:14.527,-17,173,967,-24169,-1037,1159
2025-10-11 16:13:14.528,-11,181,987,28122,-1403,1098
2025-10-11 16:13:14.594,-12,146,1001,15854,-1586,-183
2025-10-11 16:13:14.594,0,-54,1042,-27709,-488,2990
2025-10-11 16:13:14.594,2,20,1034,305,-610,366
2025-10-11 16:13:14.638,0,155,1009,-3967,1281,-854
2025-10-11 16:13:14.639,0,107,1011,-22521,2197,427
2025-10-11 16:13:14.674,-16,42,1032,-24108,-366,2014
2025-10-11 16:13:14.675,7,15,1041,-11718,-2868,3479
2025-10-11 16:13:14.676,4,79,1025,-4150,-2502,1892
2025-10-11 16:13:14.722,-1,137,1017,-8789,-305,732
2025-10-11 16:13:14.723,-10,96,1037,-12451,244,427
2025-10-11 16:13:14.770,-10,42,1057,-7629,-2624,-549
2025-10-11 16:13:14.771,11,31,1045,1953,-3051,-610
2025-10-11 16:13:14.819,17,82,1036,2502,-366,305
2025-10-11 16:13:14.820,14,83,1034,-2807,2624,-61
2025-10-11 16:13:14.820,5,57,1047,-2136,1403,-61
2025-10-11 16:13:14.881,-9,58,1048,-1220,-1037,183
2025-10-11 16:13:14.881,12,74,1046,-427,-1159,-549
2025-10-11 16:13:14.925,9,91,1033,-5615,1464,-1770
2025-10-11 16:13:14.926,1,-5,1043,-366,2929,-122
2025-10-11 16:13:14.926,-4,41,1042,9033,1953,-244
2025-10-11 16:13:14.966,-4,85,1032,5981,427,427
2025-10-11 16:13:14.966,2,93,1008,-976,854,0
2025-10-11 16:13:15.014,5,61,1022,-3784,2075,-671
2025-10-11 16:13:15.015,-9,54,1015,-2868,183,-549
2025-10-11 16:13:15.015,-2,46,1029,-549,-1098,-366
2025-10-11 16:13:15.063,3,74,1011,-3112,-61,-183
2025-10-11 16:13:15.063,0,63,1014,-6286,2197,610
2025-10-11 16:13:15.167,-7,50,1017,-5065,2990,366
2025-10-11 16:13:15.167,-12,33,1028,-915,2197,-427
2025-10-11 16:13:15.167,-11,47,1024,1647,671,-671
2025-10-11 16:13:15.211,-11,54,1020,-244,61,61
2025-10-11 16:13:15.211,-8,57,1021,-2502,61,610
2025-10-11 16:13:15.212,-5,41,1025,-1220,183,732
2025-10-11 16:13:15.258,0,50,1031,2380,366,-610
2025-10-11 16:13:15.259,-14,60,1029,122,366,-610
2025-10-11 16:13:15.260,-7,30,1040,3295,-244,183
2025-10-11 16:13:15.260,-3,59,1025,5859,-854,61
2025-10-11 16:13:15.356,0,64,1017,3906,-61,-427
2025-10-11 16:13:15.356,-6,74,1020,1647,610,-488
2025-10-11 16:13:15.357,-6,78,1016,-2624,610,-976
2025-10-11 16:13:15.404,-11,44,1023,-2624,-122,0
2025-10-11 16:13:15.405,-10,23,1035,3417,-1708,122
2025-10-11 16:13:15.405,4,51,1028,7751,-1281,305
2025-10-11 16:13:15.406,0,81,1016,4699,1586,-1159
2025-10-11 16:13:15.457,-10,65,1017,-1586,1037,-122
2025-10-11 16:13:15.457,-8,38,1031,61,-1159,-183
2025-10-11 16:13:15.457,0,54,1027,1220,-2502,-427
2025-10-11 16:13:15.502,-2,32,1035,3295,-1586,122
2025-10-11 16:13:15.503,5,36,1041,9887,-610,915
2025-10-11 16:13:15.551,-5,90,1032,6408,366,1098
2025-10-11 16:13:15.551,-2,87,1033,-488,1159,854
2025-10-11 16:13:15.599,-11,67,1037,-2807,1403,1953
2025-10-11 16:13:15.600,-12,57,1039,-305,305,1281
2025-10-11 16:13:15.601,-1,69,1027,1892,1403,305
2025-10-11 16:13:15.648,-15,94,1014,-1831,1586,-732
2025-10-11 16:13:15.649,-15,60,1010,-2746,549,-793
2025-10-11 16:13:15.697,-15,51,1014,-183,-976,-305
2025-10-11 16:13:15.698,-5,49,1014,2136,-1647,-427
2025-10-11 16:13:15.698,-2,63,1005,1892,-671,-610
2025-10-11 16:13:15.751,-11,54,1011,793,-366,-244
2025-10-11 16:13:15.751,-13,52,1017,1464,-1098,671
2025-10-11 16:13:15.794,-1,81,1017,427,-1159,488
2025-10-11 16:13:15.795,0,56,1017,244,-183,0
2025-10-11 16:13:15.797,-1,63,1026,2502,-793,-671
2025-10-11 16:13:15.843,0,73,1029,-2563,-1892,-976
2025-10-11 16:13:15.844,6,38,1037,-3051,-1953,-244
