timestamp (AEST),ax,ay,az,gx,gy,gz
2025-10-11 16:23:30.586,-49,-38,1025,793,488,-671
2025-10-11 16:23:30.586,-47,-30,1021,732,1342,-366
2025-10-11 16:23:30.588,-53,-39,1025,0,915,-427
2025-10-11 16:23:30.632,-50,-48,1024,854,183,-549
2025-10-11 16:23:30.632,-49,-38,1019,1281,488,-854
2025-10-11 16:23:30.682,-53,-34,1021,244,549,-427
2025-10-11 16:23:30.682,-51,-44,1019,244,183,-366
2025-10-11 16:23:30.684,-49,-43,1018,1403,-244,-854
2025-10-11 16:23:30.729,-49,-34,1015,976,122,-244
2025-10-11 16:23:30.729,-52,-37,1020,549,-61,-366
2025-10-11 16:23:30.810,-46,-36,1020,854,244,-793
2025-10-11 16:23:30.810,-53,-40,1024,427,-305,-732
2025-10-11 16:23:30.810,-46,-41,1018,305,-427,-610
2025-10-11 16:23:30.841,-48,-41,1022,610,61,-366
2025-10-11 16:23:30.841,-47,-39,1019,854,488,-854
2025-10-11 16:23:30.884,-50,-35,1015,244,183,-610
2025-10-11 16:23:30.884,-50,-44,1014,488,-549,-61
2025-10-11 16:23:30.924,-49,-38,1021,2075,-1037,-915
2025-10-11 16:23:30.925,-53,-23,1023,671,-488,-915
2025-10-11 16:23:30.927,-52,-44,1028,-61,-366,-854
2025-10-11 16:23:30.972,-46,-49,1025,1159,244,-915
2025-10-11 16:23:30.972,-50,-40,1032,1281,183,-793
2025-10-11 16:23:31.021,-48,-44,1033,183,-610,-854
2025-10-11 16:23:31.021,-49,-52,1030,1220,0,-549
2025-10-11 16:23:31.022,-54,-44,1032,671,183,-244
2025-10-11 16:23:31.069,-50,-39,1029,-122,427,0
2025-10-11 16:23:31.070,-46,-47,1022,915,1220,671
2025-10-11 16:23:31.130,-61,-50,1015,2868,1037,-366
2025-10-11 16:23:31.130,-55,-37,1012,4333,915,0
2025-10-11 16:23:31.130,-53,-27,1005,549,-366,0
2025-10-11 16:23:31.175,-54,-45,1006,3051,-1159,-61
2025-10-11 16:23:31.175,-43,-35,1013,3417,-2014,-488
2025-10-11 16:23:31.216,-42,-25,1016,2075,-1525,-366
2025-10-11 16:23:31.217,-44,-32,1023,305,-854,305
2025-10-11 16:23:31.265,-50,-38,1029,610,-732,0
2025-10-11 16:23:31.266,-47,-30,1029,2258,-732,-183
2025-10-11 16:23:31.267,-49,-17,1032,1159,-305,-305
2025-10-11 16:23:31.313,-55,-20,1037,-488,-610,0
2025-10-11 16:23:31.314,-55,-28,1041,0,-854,-610
2025-10-11 16:23:31.362,-38,-28,1038,671,671,-671
2025-10-11 16:23:31.363,-48,-35,1035,61,915,-793
2025-10-11 16:23:31.364,-38,-39,1021,61,976,-61
2025-10-11 16:23:31.419,-42,-41,1017,1831,1220,183
2025-10-11 16:23:31.419,-56,-31,1013,2624,305,-183
2025-10-11 16:23:31.464,-59,-17,1014,2075,-671,-244
2025-10-11 16:23:31.464,-51,-16,1014,1525,-671,-427
2025-10-11 16:23:31.464,-51,-18,1017,1037,61,-671
2025-10-11 16:23:31.508,-55,-26,1018,366,-61,-549
2025-10-11 16:23:31.509,-57,-31,1018,976,-427,-488
2025-10-11 16:23:31.558,-53,-21,1016,1525,-305,-183
2025-10-11 16:23:31.559,-51,-18,1018,610,-305,-671
2025-10-11 16:23:31.559,-58,-26,1020,488,-1037,-793
2025-10-11 16:23:31.606,-46,-28,1022,1464,-1159,-427
2025-10-11 16:23:31.607,-46,-20,1024,1770,-122,-366
2025-10-11 16:23:31.654,-61,-10,1031,183,-61,244
2025-10-11 16:23:31.655,-66,-13,1042,183,-549,488
2025-10-11 16:23:31.708,-69,-2,1059,610,-1159,-1037
2025-10-11 16:23:31.708,-43,7,1058,-1770,122,-2136
2025-10-11 16:23:31.708,-35,-27,1044,-3173,3356,-1892
2025-10-11 16:23:31.753,-46,-62,1024,-2563,2807,-1037
2025-10-11 16:23:31.753,-45,-64,1009,-305,1403,-122
2025-10-11 16:23:31.801,-44,-53,1007,3295,366,-732
2025-10-11 16:23:31.802,-54,-27,1007,2929,-854,-1708
2025-10-11 16:23:31.802,-55,-25,1012,915,-1403,-976
2025-10-11 16:23:31.850,-43,-45,1010,366,-305,-610
2025-10-11 16:23:31.851,-46,-45,1004,488,1342,-183
2025-10-11 16:23:31.898,-61,-37,1012,488,366,549
2025-10-11 16:23:31.899,-46,-24,1007,-122,-549,976
2025-10-11 16:23:31.899,-47,-15,1005,-1220,244,549
2025-10-11 16:23:31.948,-67,-25,1001,976,122,915
2025-10-11 16:23:31.948,-68,-23,1003,2563,-1525,-244
2025-10-11 16:23:31.999,-59,-11,1007,4760,-2319,-976
2025-10-11 16:23:31.999,-56,-9,1016,2868,-2929,-1708
2025-10-11 16:23:31.999,-47,-25,1025,1708,-3601,-1464
2025-10-11 16:23:32.045,-32,-40,1026,2868,-2685,-1770
2025-10-11 16:23:32.046,-31,-31,1028,2990,-1403,-1770
2025-10-11 16:23:32.094,-32,-30,1036,1098,-1770,-1464
2025-10-11 16:23:32.095,-42,-43,1042,1342,-3051,-732
2025-10-11 16:23:32.142,-25,-35,1039,2075,-1037,-1159
2025-10-11 16:23:32.143,-40,-20,1041,1708,488,-610
2025-10-11 16:23:32.144,-45,-23,1037,-61,-122,-488
2025-10-11 16:23:32.191,-40,-30,1032,1586,-610,-427
2025-10-11 16:23:32.192,-38,-21,1027,3173,-244,-1098
2025-10-11 16:23:32.240,-38,-6,1030,1953,-366,-1159
2025-10-11 16:23:32.240,-43,-13,1031,488,-793,-610
2025-10-11 16:23:32.241,-48,-20,1031,2075,-488,-549
2025-10-11 16:23:32.289,-42,-11,1025,2868,671,-1098
2025-10-11 16:23:32.292,-44,-4,1017,2807,1525,-1464
2025-10-11 16:23:32.337,-54,-18,1012,2990,-793,-976
2025-10-11 16:23:32.338,-52,-21,1013,4028,-2014,-1403
2025-10-11 16:23:32.386,-49,-7,1017,3173,-2319,-1220
2025-10-11 16:23:32.387,-44,-15,1020,3173,-1342,-1342
2025-10-11 16:23:32.387,-44,-15,1015,2502,-61,-1464
2025-10-11 16:23:32.434,-57,-20,1023,2197,-1342,-915
2025-10-11 16:23:32.435,-46,-24,1024,2990,-2502,-671
2025-10-11 16:23:32.484,-37,-8,1032,3479,-1708,-854
2025-10-11 16:23:32.485,-51,0,1033,1281,-976,-671
2025-10-11 16:23:32.485,-51,-4,1027,915,-61,0
2025-10-11 16:23:32.533,-52,-10,1036,2868,-1220,-854
2025-10-11 16:23:32.533,-44,14,1032,2197,-1403,-1525
2025-10-11 16:23:32.587,-50,16,1031,-1220,-854,-1464
2025-10-11 16:23:32.587,-36,-8,1034,-1220,305,-549
2025-10-11 16:23:32.587,-31,-13,1040,610,244,-1770
2025-10-11 16:23:32.631,-25,2,1041,-244,-183,-1708
2025-10-11 16:23:32.632,-50,-1,1054,-366,-610,-854
2025-10-11 16:23:32.679,-63,3,1075,671,-1464,-2075
2025-10-11 16:23:32.680,-28,10,1067,1464,1770,-3295
2025-10-11 16:23:32.680,-20,-1,1052,-549,5493,-3479
2025-10-11 16:23:32.727,-44,-34,1043,-2441,2685,-1403
2025-10-11 16:23:32.728,-19,-51,1024,1831,2624,-366
2025-10-11 16:23:32.776,-18,-15,1016,2319,2563,-1342
2025-10-11 16:23:32.776,-24,0,1016,1037,3051,-671
2025-10-11 16:23:32.824,-42,-1,1025,-1525,976,-671
2025-10-11 16:23:32.825,-19,-4,1006,-3051,2197,-549
2025-10-11 16:23:32.826,-33,-20,1000,-610,4455,671
2025-10-11 16:23:32.879,-66,-20,1007,1586,2685,488
2025-10-11 16:23:32.879,-53,-5,985,1464,1647,305
2025-10-11 16:23:32.923,-69,-6,990,3356,1281,1159
2025-10-11 16:23:32.924,-92,1,1017,1098,-2868,427
2025-10-11 16:23:32.925,-58,3,1021,-793,-854,610
2025-10-11 16:23:32.971,-76,-13,1026,-1525,732,610
2025-10-11 16:23:32.972,-66,-28,1015,-1831,610,1098
2025-10-11 16:23:33.019,-61,-35,1009,122,183,1525
2025-10-11 16:23:33.020,-68,-28,1007,854,-1586,1586
2025-10-11 16:23:33.021,-52,-17,1009,854,-2807,1892
2025-10-11 16:23:33.069,-40,-16,1007,-427,-4028,1342
2025-10-11 16:23:33.069,-43,-30,1017,610,-5065,915
2025-10-11 16:23:33.140,-30,-43,1020,3784,-6103,915
2025-10-11 16:23:33.141,-21,-15,1022,2441,-3967,244
2025-10-11 16:23:33.171,-16,24,1016,-5493,-671,1892
2025-10-11 16:23:33.171,-27,-20,1019,-6408,549,3112
2025-10-11 16:23:33.171,-45,-33,1021,-3051,-854,2075
2025-10-11 16:23:33.216,-36,-8,1023,1342,-2990,1403
2025-10-11 16:23:33.217,-37,24,1019,-976,-4150,183
2025-10-11 16:23:33.264,-44,18,1031,-1098,-3906,488
2025-10-11 16:23:33.264,-40,0,1046,-1281,-3723,61
2025-10-11 16:23:33.265,-35,0,1054,183,-2136,-549
2025-10-11 16:23:33.312,-34,-5,1058,183,-549,183
2025-10-11 16:23:33.313,-46,-17,1065,3723,1037,0
2025-10-11 16:23:33.361,-35,0,1058,5187,1953,-610
2025-10-11 16:23:33.362,-31,-19,1061,7690,2807,-610
2025-10-11 16:23:33.362,-21,-14,1053,9887,3173,-1525
2025-10-11 16:23:33.429,-31,8,1048,2319,2502,-2075
2025-10-11 16:23:33.429,-30,-21,1046,-854,3356,-305
2025-10-11 16:23:33.460,-16,-37,1023,4455,7690,-2014
2025-10-11 16:23:33.460,-48,22,1016,3845,11047,-2380
2025-10-11 16:23:33.460,-69,33,1011,-3723,9338,1586
2025-10-11 16:23:33.508,-62,-18,1012,-5004,8361,1342
2025-10-11 16:23:33.508,-54,-29,1013,4577,10559,-1708
2025-10-11 16:23:33.556,-54,3,1023,7385,15319,-2624
2025-10-11 16:23:33.556,-58,15,1029,4211,20385,-2380
2025-10-11 16:23:33.605,-72,22,1029,-305,23498,-854
2025-10-11 16:23:33.606,-74,4,1036,-4028,24902,-1220
2025-10-11 16:23:33.606,-63,-74,1041,2807,28503,-2075
2025-10-11 16:23:33.654,-39,-114,1045,21179,-26474,-8605
2025-10-11 16:23:33.655,-44,-79,1057,-32394,-12863,-15075
2025-10-11 16:23:33.703,-73,21,1044,30944,3189,-15869
2025-10-11 16:23:33.704,-105,89,1039,20019,19974,-13916
2025-10-11 16:23:33.704,-111,27,1005,23010,-17669,-21667
2025-10-11 16:23:33.754,-221,-20,958,-20981,-4974,-22888
2025-10-11 16:23:33.754,-372,153,941,-27878,-13885,-19287
2025-10-11 16:23:33.801,-390,213,857,25939,-13885,-7934
2025-10-11 16:23:33.801,-353,158,860,12145,-7476,-12207
2025-10-11 16:23:33.802,-408,147,827,16052,11139,-19714
2025-10-11 16:23:33.848,-535,155,838,16113,17304,-23803
2025-10-11 16:23:33.849,-619,150,816,7141,1984,-17822
2025-10-11 16:23:33.898,-629,87,777,6774,-23529,-15075
2025-10-11 16:23:33.899,-638,118,739,4821,24551,-13305
2025-10-11 16:23:33.899,-647,127,762,-1281,13626,-15625
2025-10-11 16:23:33.946,-705,100,741,305,3983,-13793
2025-10-11 16:23:33.947,-705,74,712,-1831,-5356,-11840
2025-10-11 16:23:34.014,-710,58,696,732,-8530,-6591
2025-10-11 16:23:34.014,-765,81,709,3417,-15060,-5065
2025-10-11 16:23:34.045,-761,124,695,-2624,-20981,-9399
2025-10-11 16:23:34.045,-756,96,680,-6713,-21286,-13427
2025-10-11 16:23:34.045,-778,57,674,-3784,-23239,-12634
2025-10-11 16:23:34.094,-779,34,654,1403,-24765,-8666
2025-10-11 16:23:34.094,-790,43,642,3234,-28915,-5859
2025-10-11 16:23:34.141,-802,54,629,-1098,26916,-3906
2025-10-11 16:23:34.141,-821,54,623,-3601,19958,-5554
2025-10-11 16:23:34.142,-821,55,607,-6347,13793,-8422
2025-10-11 16:23:34.190,-797,51,579,-6103,14221,-8666
2025-10-11 16:23:34.190,-806,43,577,-6896,17395,-8056
2025-10-11 16:23:34.239,-834,20,582,-3356,15197,-5493
2025-10-11 16:23:34.239,-848,27,588,-1708,5249,-4882
2025-10-11 16:23:34.240,-810,45,573,-2929,3051,-4699
2025-10-11 16:23:34.305,-813,42,583,-3112,8483,-4882
2025-10-11 16:23:34.305,-833,42,594,-5554,8361,-7019
2025-10-11 16:23:34.345,-831,13,587,-4150,1464,-4821
2025-10-11 16:23:34.345,-819,21,577,-2990,-854,-2441
2025-10-11 16:23:34.345,-810,25,587,-2563,122,-1647
2025-10-11 16:23:34.386,-824,27,593,-2624,732,-1342
2025-10-11 16:23:34.386,-833,40,592,-4211,-2502,-3479
2025-10-11 16:23:34.434,-812,44,577,-5798,-1586,-5126
2025-10-11 16:23:34.435,-821,26,583,-2502,-732,-4394
2025-10-11 16:23:34.483,-815,29,582,61,-366,-2807
2025-10-11 16:23:34.484,-824,37,593,-244,-1647,-2380
2025-10-11 16:23:34.484,-811,32,590,-2807,-3723,-2868
2025-10-11 16:23:34.531,-798,28,583,-2868,-488,-4211
2025-10-11 16:23:34.531,-812,14,579,-2075,-1342,-2746
2025-10-11 16:23:34.585,-807,10,582,2746,-305,2075
2025-10-11 16:23:34.585,-830,37,599,4394,-2563,2075
2025-10-11 16:23:34.585,-807,44,591,1770,-3417,-1098
2025-10-11 16:23:34.629,-810,34,592,976,61,-1586
2025-10-11 16:23:34.630,-822,27,592,1892,-366,-1586
2025-10-11 16:23:34.677,-824,27,594,2075,-2807,-1342
2025-10-11 16:23:34.678,-817,34,593,610,-4272,-1586
2025-10-11 16:23:34.726,-830,38,596,-2624,-6408,-3723
2025-10-11 16:23:34.727,-815,32,592,-4272,-7873,-5554
2025-10-11 16:23:34.727,-814,18,593,-2380,-7995,-4272
2025-10-11 16:23:34.775,-816,10,601,-671,-9826,-2502
2025-10-11 16:23:34.776,-832,19,613,-549,-15075,-2746
2025-10-11 16:23:34.823,-851,15,628,-793,-27770,-4150
2025-10-11 16:23:34.824,-890,19,645,-1159,15182,-6591
2025-10-11 16:23:34.825,-901,24,628,6835,-13382,-8300
2025-10-11 16:23:34.882,-894,59,642,7812,18951,-11840
2025-10-11 16:23:34.882,-830,61,655,13305,-9553,-13366
2025-10-11 16:23:34.921,-815,71,691,10803,26442,-14526
2025-10-11 16:23:34.923,-812,-152,675,6591,-2305,4318
2025-10-11 16:23:34.924,-654,132,923,-4882,31371,9811
2025-10-11 16:23:34.970,-438,20,776,-6652,6163,-22399
2025-10-11 16:23:34.970,-297,-79,820,7141,17271,-10742
2025-10-11 16:23:35.019,-142,10,812,2380,-28489,854
2025-10-11 16:23:35.019,-59,38,861,-10070,11672,6896
2025-10-11 16:23:35.020,24,14,871,-22827,-12421,-2807
2025-10-11 16:23:35.067,29,-70,915,-11596,-27664,-4760
2025-10-11 16:23:35.068,-12,-146,964,8666,5417,4943
2025-10-11 16:23:35.116,-37,-96,1000,32104,16342,16784
2025-10-11 16:23:35.117,-20,-22,1005,19165,10117,23193
2025-10-11 16:23:35.168,115,13,1047,-1342,14389,-3601
2025-10-11 16:23:35.168,84,-2,988,-549,-28320,-5920
2025-10-11 16:23:35.168,52,-34,1020,4089,-8850,13977
2025-10-11 16:23:35.215,47,-16,1023,366,-3479,28381
2025-10-11 16:23:35.217,59,-52,1070,-8361,-793,26184
2025-10-11 16:23:35.262,84,-62,1089,-8605,-1403,-3540
2025-10-11 16:23:35.264,22,-62,1048,8972,427,-7507
2025-10-11 16:23:35.264,25,-14,1039,12451,732,-305
2025-10-11 16:23:35.311,26,24,1058,1098,915,5371
2025-10-11 16:23:35.312,36,9,1075,-18188,1281,2563
2025-10-11 16:23:35.360,45,-86,1066,-10559,3845,-2563
2025-10-11 16:23:35.361,10,-76,1065,3051,6103,-61
2025-10-11 16:23:35.361,23,-19,1052,427,2685,1647
2025-10-11 16:23:35.421,26,-26,1043,-7995,1770,1770
2025-10-11 16:23:35.422,32,-54,1036,-11352,3112,-1770
2025-10-11 16:23:35.464,15,-84,1035,-3234,6591,305
2025-10-11 16:23:35.464,12,-75,1039,1770,5493,671
2025-10-11 16:23:35.506,1,-48,1043,1281,2624,2136
2025-10-11 16:23:35.507,13,-43,1045,-3356,671,976
2025-10-11 16:23:35.507,26,-65,1024,-2136,5126,-61
2025-10-11 16:23:35.555,16,-83,1024,2075,8483,427
2025-10-11 16:23:35.556,-8,-62,1027,2441,6896,1831
2025-10-11 16:23:35.603,-14,-52,1016,-305,3662,4089
2025-10-11 16:23:35.604,-10,-53,1015,-2319,1647,5004
2025-10-11 16:23:35.605,-2,-61,1022,-1403,2990,1403
2025-10-11 16:23:35.652,-10,-53,1021,671,4638,-1281
2025-10-11 16:23:35.653,-17,-58,1016,2014,4394,-122
2025-10-11 16:23:35.706,-14,-55,1019,2258,2014,732
2025-10-11 16:23:35.706,-6,-44,1006,549,244,1953
2025-10-11 16:23:35.706,1,-57,1007,549,2258,488
2025-10-11 16:23:35.753,-2,-53,1009,2990,4272,-122
2025-10-11 16:23:35.753,-10,-42,1013,3662,6286,427
2025-10-11 16:23:35.798,-20,-30,1024,1037,4577,793
2025-10-11 16:23:35.799,-23,-38,1023,-2014,1159,1525
2025-10-11 16:23:35.800,-15,-60,1022,-1098,-305,1586
2025-10-11 16:23:35.847,-9,-58,1021,2136,610,183
2025-10-11 16:23:35.848,-9,-33,1021,3723,2746,-1098
2025-10-11 16:23:35.896,-22,-26,1021,1953,3967,-61
2025-10-11 16:23:35.897,-22,-36,1022,-854,3784,1220
2025-10-11 16:23:35.898,-28,-50,1030,-1281,-915,2502
2025-10-11 16:23:35.945,-12,-57,1028,1098,-1586,-610
2025-10-11 16:23:35.947,-21,-30,1024,3540,0,-915
2025-10-11 16:23:36.013,-12,-29,1024,1281,2136,-610
2025-10-11 16:23:36.013,-13,-48,1027,671,3784,-671
2025-10-11 16:23:36.054,-22,-58,1036,671,2380,305
2025-10-11 16:23:36.054,-18,-56,1033,183,0,1220
2025-10-11 16:23:36.054,-14,-51,1026,-488,-244,854
2025-10-11 16:23:36.092,-14,-61,1019,1220,671,183
2025-10-11 16:23:36.093,-26,-48,1019,2868,671,-427
2025-10-11 16:23:36.140,-29,-33,1016,1037,122,915
2025-10-11 16:23:36.140,-21,-36,1015,-915,-366,427
2025-10-11 16:23:36.141,-30,-45,1012,-183,-305,0
2025-10-11 16:23:36.188,-34,-44,1019,1098,-1892,-122
2025-10-11 16:23:36.189,-26,-34,1016,854,-3479,-976
2025-10-11 16:23:36.238,-28,-35,1014,610,-3417,-793
2025-10-11 16:23:36.238,-24,-35,1017,-122,-2807,-976
2025-10-11 16:23:36.239,-23,-34,1018,-671,-1098,-1220
2025-10-11 16:23:36.287,-30,-43,1027,-1098,-1403,-854
2025-10-11 16:23:36.287,-40,-37,1039,-1098,-4150,-1342
2025-10-11 16:23:36.337,-20,-38,1043,-793,-4516,-2075
2025-10-11 16:23:36.337,-10,-48,1036,-610,-2685,-2685
2025-10-11 16:23:36.385,-13,-43,1036,-1403,-1159,-2807
2025-10-11 16:23:36.385,-17,-34,1041,-2502,-976,-3051
2025-10-11 16:23:36.385,-17,-33,1038,-3784,-1892,-4089
2025-10-11 16:23:36.432,-13,-62,1032,-2136,-2258,-3906
2025-10-11 16:23:36.433,-2,-64,1031,793,-1098,-4028
2025-10-11 16:23:36.481,-2,-45,1032,-549,-366,-4272
2025-10-11 16:23:36.482,-1,-57,1028,-1892,427,-3051
2025-10-11 16:23:36.482,10,-73,1023,-1220,1159,-2380
2025-10-11 16:23:36.530,-2,-76,1013,1586,2258,183
2025-10-11 16:23:36.530,0,-60,1017,2258,3051,1098
2025-10-11 16:23:36.579,-6,-44,1014,2197,3051,0
2025-10-11 16:23:36.579,-15,-46,1013,915,1831,183
2025-10-11 16:23:36.580,-18,-58,1011,366,-305,-244
2025-10-11 16:23:36.635,-12,-43,1009,610,-671,-793
2025-10-11 16:23:36.635,-12,-42,1004,1037,61,-1586
2025-10-11 16:23:36.677,-18,-48,1007,1770,-183,-1403
2025-10-11 16:23:36.679,-17,-52,1008,2075,-1220,-1342
2025-10-11 16:23:36.725,-13,-40,1011,2136,-366,-366
2025-10-11 16:23:36.725,-13,-40,1019,854,427,-610
2025-10-11 16:23:36.726,-17,-46,1025,1220,-366,-1342
2025-10-11 16:23:36.774,-11,-46,1024,2075,-183,-1708
2025-10-11 16:23:36.774,-14,-43,1029,2258,427,-1342
2025-10-11 16:23:36.822,-12,-36,1027,976,122,-1525
2025-10-11 16:23:36.823,-19,-43,1025,610,-122,-1098
2025-10-11 16:23:36.824,-17,-59,1036,1831,-1037,-1159
2025-10-11 16:23:36.892,-9,-54,1039,3234,-1586,-2258
2025-10-11 16:23:36.892,-9,-38,1033,2502,-549,-1586
2025-10-11 16:23:36.924,-16,-38,1031,366,610,0
2025-10-11 16:23:36.924,-19,-53,1036,427,-183,1037
2025-10-11 16:23:36.924,-7,-54,1035,1953,183,-732
2025-10-11 16:23:36.969,-12,-34,1028,1464,854,-1281
2025-10-11 16:23:36.969,-18,-41,1028,-671,915,-1037
2025-10-11 16:23:37.017,-15,-58,1029,-305,61,-427
2025-10-11 16:23:37.018,-8,-59,1026,488,-854,61
2025-10-11 16:23:37.066,-2,-62,1024,1831,-183,244
2025-10-11 16:23:37.067,-9,-50,1024,2685,366,183
2025-10-11 16:23:37.068,-11,-34,1019,732,732,122
2025-10-11 16:23:37.115,-17,-45,1018,610,854,183
2025-10-11 16:23:37.116,-19,-54,1023,2075,-793,-61
2025-10-11 16:23:37.175,-15,-33,1019,1037,-1647,61
2025-10-11 16:23:37.175,-14,-41,1019,-305,-915,366
2025-10-11 16:23:37.175,-13,-47,1021,854,-305,-366
2025-10-11 16:23:37.220,-11,-38,1017,915,244,-549
2025-10-11 16:23:37.220,-16,-47,1009,244,-366,-183
2025-10-11 16:23:37.262,-20,-50,1016,1037,-1892,549
2025-10-11 16:23:37.262,-14,-35,1020,1220,-2868,-61
2025-10-11 16:23:37.263,-11,-32,1023,915,-2563,-915
2025-10-11 16:23:37.310,-9,-39,1024,793,-1281,-427
2025-10-11 16:23:37.311,-7,-46,1029,976,427,-244
2025-10-11 16:23:37.359,-20,-38,1037,244,-305,0
2025-10-11 16:23:37.360,-14,-36,1033,-732,-1403,-366
2025-10-11 16:23:37.360,-4,-47,1022,-976,-671,-366
2025-10-11 16:23:37.407,-7,-60,1018,549,-244,-244
2025-10-11 16:23:37.408,-7,-53,1012,2502,488,0
2025-10-11 16:23:37.461,-21,-31,1018,1464,61,610
2025-10-11 16:23:37.462,-22,-26,1022,-244,-915,366
2025-10-11 16:23:37.510,-18,-38,1025,61,-2563,-1159
2025-10-11 16:23:37.510,-13,-46,1025,2319,-3051,-1281
2025-10-11 16:23:37.510,-2,-40,1031,2807,-1281,-1159
2025-10-11 16:23:37.553,0,-26,1032,244,183,-244
2025-10-11 16:23:37.555,-8,-39,1031,488,122,0
2025-10-11 16:23:37.602,-2,-36,1026,1708,-549,122
2025-10-11 16:23:37.602,-4,-29,1028,1525,-610,610
2025-10-11 16:23:37.603,-2,-33,1028,671,-976,732
2025-10-11 16:23:37.651,0,-30,1028,976,-122,183
2025-10-11 16:23:37.651,-5,-30,1029,1586,671,-305
2025-10-11 16:23:37.700,-12,-30,1032,1647,427,-122
2025-10-11 16:23:37.700,-11,-26,1035,1220,-549,-366
2025-10-11 16:23:37.701,-3,-28,1035,976,2014,549
2025-10-11 16:23:37.750,4,-27,1032,61,6225,2258
2025-10-11 16:23:37.750,8,-36,1035,122,12573,5615
2025-10-11 16:23:37.799,10,-37,1031,-793,18798,7019
2025-10-11 16:23:37.799,0,-47,1040,-1586,25024,7385
2025-10-11 16:23:37.846,-13,-38,1030,-2197,31311,7751
2025-10-11 16:23:37.846,-14,-34,1023,-2197,-22873,10864
2025-10-11 16:23:37.847,-31,-33,1031,-3173,-10300,12145
2025-10-11 16:23:37.895,-59,-32,1031,-4272,1419,12695
2025-10-11 16:23:37.896,-88,-49,1034,-5371,9903,12023
2025-10-11 16:23:37.943,-126,-55,1022,-4333,19485,9765
2025-10-11 16:23:37.944,-177,-47,1002,-3723,24124,9094
2025-10-11 16:23:37.945,-179,-38,998,-4394,-29388,10742
2025-10-11 16:23:37.993,-185,-90,995,-2746,-11932,0
2025-10-11 16:23:37.993,-290,-50,992,-976,-5584,-11108
2025-10-11 16:23:38.043,-382,-31,984,-3112,-4974,-13610
2025-10-11 16:23:38.043,-398,-61,957,-671,-9002,-12451
2025-10-11 16:23:38.043,-557,-57,906,10131,-6683,-11108
2025-10-11 16:23:38.091,-491,-36,952,14831,-10040,-6652
2025-10-11 16:23:38.091,-517,-63,873,20080,-9368,-5004
2025-10-11 16:23:38.139,-579,-69,913,10681,-18707,-8422
2025-10-11 16:23:38.140,-708,-16,824,8850,25345,-4760
2025-10-11 16:23:38.140,-653,-44,757,6164,10696,-6164
2025-10-11 16:23:38.187,-660,-30,744,7446,4166,-1220
2025-10-11 16:23:38.188,-659,-36,718,12695,3922,2319
2025-10-11 16:23:38.236,-693,-12,716,15319,2029,4638
2025-10-11 16:23:38.237,-781,7,690,11718,-8835,3967
2025-10-11 16:23:38.285,-795,4,677,4638,-28732,427
2025-10-11 16:23:38.285,-751,24,655,-2014,18493,-4150
2025-10-11 16:23:38.286,-727,28,634,-9826,13671,-8239
2025-10-11 16:23:38.339,-728,17,628,-14953,9887,-5249
2025-10-11 16:23:38.339,-734,-41,618,-10070,4821,2502
2025-10-11 16:23:38.383,-722,-31,627,-3234,-1708,6164
2025-10-11 16:23:38.384,-734,15,633,-1647,-3540,3051
2025-10-11 16:23:38.384,-733,29,634,-9826,-5615,-1464
2025-10-11 16:23:38.431,-729,-11,642,-8666,-4943,-4638
2025-10-11 16:23:38.432,-713,-36,649,-1647,-3234,61
2025-10-11 16:23:38.480,-727,-19,663,2075,-3540,3356
2025-10-11 16:23:38.481,-731,-1,669,-976,-5065,2441
2025-10-11 16:23:38.482,-728,-1,670,-1647,-4821,854
2025-10-11 16:23:38.528,-734,7,673,-4699,-4272,-2380
2025-10-11 16:23:38.529,-752,-11,686,-3479,-7202,-2014
2025-10-11 16:23:38.600,-739,-9,685,-3112,-7385,-1770
2025-10-11 16:23:38.600,-731,-15,699,-3662,-4821,-1098
2025-10-11 16:23:38.600,-742,-35,705,-305,-3479,-305
2025-10-11 16:23:38.629,-744,-21,706,1892,-4150,183
2025-10-11 16:23:38.630,-736,-17,704,1220,-3234,0
2025-10-11 16:23:38.675,-751,-10,710,-610,-3234,-1525
2025-10-11 16:23:38.676,-757,-12,712,-3479,-6164,-3234
2025-10-11 16:23:38.723,-744,-21,713,-3784,-7263,-3540
2025-10-11 16:23:38.724,-730,-33,714,122,-6103,-793
2025-10-11 16:23:38.725,-745,-26,722,671,-9094,-488
2025-10-11 16:23:38.772,-760,-22,732,-1770,-17028,-2136
2025-10-11 16:23:38.773,-811,-27,753,-1220,28671,-4821
2025-10-11 16:23:38.821,-809,-51,764,3234,-5447,-5126
2025-10-11 16:23:38.821,-723,-47,695,10009,-23392,-61
2025-10-11 16:23:38.822,-666,3,747,11596,-26688,6103
2025-10-11 16:23:38.880,-679,36,768,-6896,25238,4333
2025-10-11 16:23:38.880,-686,26,744,-26306,6622,6164
2025-10-11 16:23:38.919,-629,-171,773,-23559,3936,-5859
2025-10-11 16:23:38.919,-497,-181,864,22521,-10529,-18798
2025-10-11 16:23:38.924,-483,-26,883,27465,-31403,32028
2025-10-11 16:23:38.967,-380,158,796,11169,-26276,-23803
2025-10-11 16:23:38.968,-328,196,860,-18981,-14802,5615
2025-10-11 16:23:39.016,-278,41,903,21347,-13093,29785
2025-10-11 16:23:39.017,-148,-258,925,30685,-10651,-32028
2025-10-11 16:23:39.018,-69,-348,992,-3784,-8820,4638
2025-10-11 16:23:39.065,-44,-110,922,22766,4425,-10437
2025-10-11 16:23:39.066,-34,92,909,13977,26458,3051
2025-10-11 16:23:39.113,-23,95,966,-20568,-20584,14160
2025-10-11 16:23:39.114,4,52,998,1328,-12039,3906
2025-10-11 16:23:39.165,34,-206,964,20248,-8438,7263
2025-10-11 16:23:39.166,88,-320,936,915,-1480,12084
2025-10-11 16:23:39.166,114,-234,967,-27390,10544,7995
2025-10-11 16:23:39.213,132,-48,1019,-21835,23117,-6286
2025-10-11 16:23:39.213,133,39,1045,27404,-32287,-16357
2025-10-11 16:23:39.260,159,-20,1024,15197,-19165,-12634
2025-10-11 16:23:39.260,195,-80,1042,17456,-915,122
2025-10-11 16:23:39.261,189,-93,1079,15258,9826,3417
2025-10-11 16:23:39.309,167,-90,1107,10131,10864,1525
2025-10-11 16:23:39.309,150,-89,1102,3784,6591,1098
2025-10-11 16:23:39.357,153,-104,1086,3479,5615,2136
2025-10-11 16:23:39.358,151,-89,1073,5432,10559,4699
2025-10-11 16:23:39.406,131,-69,1091,2258,15319,6469
2025-10-11 16:23:39.406,115,-78,1084,-2319,15563,4028
2025-10-11 16:23:39.407,94,-95,1067,-427,14892,3601
2025-10-11 16:23:39.458,81,-102,1057,2563,10803,1464
2025-10-11 16:23:39.458,70,-69,1039,3601,6591,1281
2025-10-11 16:23:39.505,73,-57,1033,1098,3356,1831
2025-10-11 16:23:39.505,81,-78,1019,915,4028,2136
2025-10-11 16:23:39.507,86,-73,1010,2502,9582,5554
2025-10-11 16:23:39.552,80,-64,1018,-976,11291,5249
2025-10-11 16:23:39.553,69,-72,1016,-1281,10498,2319
2025-10-11 16:23:39.601,56,-80,1002,1037,7751,1342
2025-10-11 16:23:39.601,47,-63,994,2990,3845,1525
2025-10-11 16:23:39.602,55,-41,984,244,1403,2624
2025-10-11 16:23:39.650,57,-38,992,-2197,2075,3784
2025-10-11 16:23:39.651,53,-59,1003,-2014,1953,1708
2025-10-11 16:23:39.720,51,-69,1005,1892,1464,305
2025-10-11 16:23:39.720,50,-55,1006,4333,854,-732
2025-10-11 16:23:39.720,51,-41,1018,305,-976,-732
2025-10-11 16:23:39.748,57,-54,1018,-610,-427,0
2025-10-11 16:23:39.748,74,-65,1023,488,2685,305
2025-10-11 16:23:39.798,70,-72,1028,4943,7141,427
2025-10-11 16:23:39.798,58,-54,1037,4943,8605,-1098
2025-10-11 16:23:39.798,45,-37,1044,915,6408,-488
2025-10-11 16:23:39.845,51,-62,1042,-1953,3784,732
2025-10-11 16:23:39.846,54,-87,1040,976,3723,732
2025-10-11 16:23:39.894,52,-74,1049,3845,4089,1220
2025-10-11 16:23:39.894,48,-53,1042,3601,4333,244
2025-10-11 16:23:39.943,37,-42,1035,976,4394,-366
2025-10-11 16:23:39.943,36,-61,1031,1037,3417,-122
2025-10-11 16:23:39.943,42,-59,1020,2136,2136,122
2025-10-11 16:23:39.991,41,-55,1021,2746,1281,549
2025-10-11 16:23:39.992,44,-59,1018,4577,1159,-427
2025-10-11 16:23:40.046,39,-54,1016,6835,1708,-183
2025-10-11 16:23:40.047,41,-51,1011,7995,2746,-244
2025-10-11 16:23:40.047,42,-53,1013,10864,3540,183
2025-10-11 16:23:40.089,30,-30,1013,10681,2380,-793
2025-10-11 16:23:40.089,20,7,1008,3540,183,-854
2025-10-11 16:23:40.138,28,0,1000,-3662,976,1647
2025-10-11 16:23:40.138,30,-50,1010,-244,1159,0
2025-10-11 16:23:40.186,19,-36,1014,3784,61,-976
2025-10-11 16:23:40.186,22,-20,1019,3112,-1403,-1464
2025-10-11 16:23:40.187,34,-15,1022,488,-1831,-1342
2025-10-11 16:23:40.235,40,-30,1020,-2319,-2441,-1281
2025-10-11 16:23:40.235,48,-70,1011,-2197,-1708,854
2025-10-11 16:23:40.288,36,-66,1034,244,-2075,1281
2025-10-11 16:23:40.289,39,-31,1047,-488,-3662,1159
2025-10-11 16:23:40.289,48,-40,1044,305,-1647,915
2025-10-11 16:23:40.334,45,-45,1032,4333,3723,-1892
2025-10-11 16:23:40.334,22,-13,1030,3540,4211,-1098
2025-10-11 16:23:40.381,21,-6,1041,610,1831,-1159
2025-10-11 16:23:40.381,26,-25,1038,-1220,-793,-1098
2025-10-11 16:23:40.382,39,-47,1033,915,-915,-1403
2025-10-11 16:23:40.430,46,-31,1031,3295,2380,-1708
2025-10-11 16:23:40.431,36,-17,1039,1647,5004,-1708
2025-10-11 16:23:40.479,30,-22,1043,-3662,4577,-1892
2025-10-11 16:23:40.480,28,-46,1033,-6652,2868,-854
2025-10-11 16:23:40.480,35,-71,1026,-4333,3845,549
2025-10-11 16:23:40.528,29,-80,1035,2563,4943,305
2025-10-11 16:23:40.528,25,-32,1023,2868,7324,1281
2025-10-11 16:23:40.626,16,-19,1019,-549,10192,-122
2025-10-11 16:23:40.626,2,-27,1016,-2136,11352,244
2025-10-11 16:23:40.627,0,-60,1022,3112,10559,915
2025-10-11 16:23:40.627,-6,-53,1020,7751,8056,-244
2025-10-11 16:23:40.674,-3,-19,1014,8605,6958,-915
2025-10-11 16:23:40.674,-4,8,1015,4272,6042,-1892
2025-10-11 16:23:40.675,-10,10,1014,-2319,3967,-2319
2025-10-11 16:23:40.722,-3,-33,1018,-3662,2685,-2075
2025-10-11 16:23:40.723,7,-58,1021,4089,2319,-3112
2025-10-11 16:23:40.724,1,-28,1029,4455,2075,-2502
2025-10-11 16:23:40.771,5,-24,1027,488,1037,-1464
2025-10-11 16:23:40.771,7,-41,1029,-183,183,-366
2025-10-11 16:23:40.844,3,-39,1022,427,610,61
2025-10-11 16:23:40.844,3,-26,1017,732,2380,427
2025-10-11 16:23:40.844,-3,-21,1021,549,4028,671
2025-10-11 16:23:40.872,-13,-33,1025,427,2807,-183
2025-10-11 16:23:40.872,-15,-35,1021,1708,427,-488
2025-10-11 16:23:40.918,-11,-28,1015,2807,-732,-976
2025-10-11 16:23:40.919,-7,-18,1013,1770,183,-1281
2025-10-11 16:23:40.920,-9,-12,1013,244,976,-1098
2025-10-11 16:23:40.967,-13,-33,1019,1281,488,-2136
2025-10-11 16:23:40.967,-18,-35,1023,2563,-1953,-3417
2025-10-11 16:23:41.015,-11,-26,1015,1647,-4089,-2868
2025-10-11 16:23:41.016,-5,-31,1019,549,-4211,-1770
2025-10-11 16:23:41.063,0,-33,1020,732,-3112,-671
2025-10-11 16:23:41.064,6,-22,1025,1220,244,-671
2025-10-11 16:23:41.065,-5,-15,1028,-488,1892,-1281
2025-10-11 16:23:41.148,-7,-29,1019,-1281,1525,-549
2025-10-11 16:23:41.148,-7,-42,1013,-610,-244,305
2025-10-11 16:23:41.164,-6,-29,1023,-1586,-1586,244
2025-10-11 16:23:41.164,-9,-29,1024,-2624,-2075,-122
2025-10-11 16:23:41.164,-7,-28,1015,-3173,-1647,-610
2025-10-11 16:23:41.220,-9,-29,1022,-1647,366,-427
2025-10-11 16:23:41.220,-12,-26,1026,-671,1586,-1037
2025-10-11 16:23:41.261,-11,-44,1034,854,2075,-366
2025-10-11 16:23:41.262,-9,-49,1036,122,732,-1220
2025-10-11 16:23:41.262,-10,-39,1038,549,-183,-549
2025-10-11 16:23:41.307,2,-36,1037,549,854,1037
2025-10-11 16:23:41.308,4,-37,1045,610,3540,1159
2025-10-11 16:23:41.356,-6,-40,1042,854,3662,915
2025-10-11 16:23:41.357,-6,-40,1039,1586,1770,1098
2025-10-11 16:23:41.405,-3,-27,1036,732,488,1098
2025-10-11 16:23:41.405,-2,-25,1027,-1403,488,1342
2025-10-11 16:23:41.406,-8,-32,1025,0,793,1220
2025-10-11 16:23:41.454,-12,-23,1022,427,244,305
2025-10-11 16:23:41.454,-14,-22,1026,976,-244,305
2025-10-11 16:23:41.507,-12,-32,1020,1159,-671,-244
2025-10-11 16:23:41.507,-11,-28,1022,1892,244,-122
2025-10-11 16:23:41.507,-11,-24,1022,1220,549,-427
2025-10-11 16:23:41.551,-17,-32,1023,1708,-793,-610
2025-10-11 16:23:41.551,-11,-36,1024,2197,-1953,244
2025-10-11 16:23:41.600,-11,-24,1026,976,-2502,-183
2025-10-11 16:23:41.600,-3,-26,1027,1892,-671,366
2025-10-11 16:23:41.601,-6,-21,1032,2441,1037,-244
2025-10-11 16:23:41.649,-9,-16,1031,427,1647,122
2025-10-11 16:23:41.650,-19,-30,1031,-671,-183,671
2025-10-11 16:23:41.697,-7,-34,1022,-122,-1220,1037
2025-10-11 16:23:41.698,2,-28,1012,1037,-366,854
2025-10-11 16:23:41.750,-6,-15,1001,-793,610,1464
2025-10-11 16:23:41.750,-23,-40,1025,1464,-1525,183
2025-10-11 16:23:41.750,-14,-14,1016,2502,-2868,-671
2025-10-11 16:23:41.799,-10,0,1016,244,-2197,-671
2025-10-11 16:23:41.800,-11,-8,1017,-1831,-854,-122
2025-10-11 16:23:41.844,-8,-33,1027,-671,-183,-122
2025-10-11 16:23:41.844,-12,-39,1027,1525,-549,-1037
2025-10-11 16:23:41.845,-12,-27,1027,1281,-915,-61
2025-10-11 16:23:41.893,-8,-26,1028,183,-1037,549
2025-10-11 16:23:41.893,-2,-21,1029,-915,-366,183
2025-10-11 16:23:41.941,-9,-31,1024,-671,-183,305
2025-10-11 16:23:41.942,-8,-33,1024,1281,-610,-61
2025-10-11 16:23:41.942,-9,-18,1023,1159,-1037,-610
2025-10-11 16:23:41.990,-10,-26,1026,61,-2014,-427
2025-10-11 16:23:41.991,-4,-35,1026,915,-2197,-244
2025-10-11 16:23:42.043,-2,-25,1030,1281,-1037,61
2025-10-11 16:23:42.043,-8,-18,1043,-1037,-976,366
2025-10-11 16:23:42.043,1,-30,1047,-1403,-915,366
2025-10-11 16:23:42.089,12,-52,1049,1342,1770,366
2025-10-11 16:23:42.090,11,-48,1057,4150,5249,793
2025-10-11 16:23:42.136,7,-14,1050,-2929,7690,2014
2025-10-11 16:23:42.137,-7,-38,1024,-5432,6713,3601
2025-10-11 16:23:42.185,-7,-52,1008,-2746,5432,3479
2025-10-11 16:23:42.186,-7,-36,989,-1953,4516,3234
2025-10-11 16:23:42.187,-22,-30,981,-2136,3967,2441
2025-10-11 16:23:42.234,-41,-27,984,-1220,3173,1892
2025-10-11 16:23:42.234,-43,-26,996,2563,1403,732
2025-10-11 16:23:42.282,-41,-8,999,2502,-427,-427
2025-10-11 16:23:42.283,-38,-9,1013,427,-1342,61
2025-10-11 16:23:42.284,-25,-24,1020,-1281,-1708,-671
2025-10-11 16:23:42.333,-25,-37,1034,549,-2075,-732
2025-10-11 16:23:42.333,-20,-29,1046,366,-2563,-976
2025-10-11 16:23:42.381,-20,-29,1055,0,-1708,-427
2025-10-11 16:23:42.383,-18,-27,1068,-183,-488,-366
2025-10-11 16:23:42.383,-11,-18,1073,-2136,976,-61
2025-10-11 16:23:42.429,-12,-23,1067,-4882,1770,-122
2025-10-11 16:23:42.430,-15,-33,1063,-5126,2319,549
2025-10-11 16:23:42.477,-14,-43,1057,-2319,3662,0
2025-10-11 16:23:42.478,-16,-22,1049,-2441,5432,1525
2025-10-11 16:23:42.526,0,6,1047,-7690,12756,7934
2025-10-11 16:23:42.527,-1,-3,1073,-20019,26550,17456
2025-10-11 16:23:42.527,-15,-82,1090,-20019,-29282,18981
2025-10-11 16:23:42.575,-22,-97,1075,-15686,-20615,17456
2025-10-11 16:23:42.576,-23,-120,1054,-9887,-11276,20935
2025-10-11 16:23:42.627,-2,-183,1038,6530,3799,26367
2025-10-11 16:23:42.627,5,-174,1008,22216,31265,27465
2025-10-11 16:23:42.627,-24,-134,976,-32394,4670,22827
2025-10-11 16:23:42.674,-84,-79,964,29174,-27114,4455
2025-10-11 16:23:42.674,-189,-127,949,24963,1084,-20019
2025-10-11 16:23:42.722,-293,36,890,19287,27940,26596
2025-10-11 16:23:42.723,-543,119,865,-9338,24888,19028
2025-10-11 16:23:42.723,-732,-19,840,-25085,-17287,23361
2025-10-11 16:23:42.770,-801,-134,773,-10742,-6378,-23315
2025-10-11 16:23:42.771,-718,-156,724,13854,18753,-6164
2025-10-11 16:23:42.818,-684,-35,740,22216,870,-2563
2025-10-11 16:23:42.819,-694,3,751,19470,-7797,-7812
2025-10-11 16:23:42.820,-694,-19,725,16662,-17319,-7385
2025-10-11 16:23:42.867,-683,-52,696,18798,-22995,-1403
2025-10-11 16:23:42.893,-670,-41,690,18859,-25742,5798
2025-10-11 16:23:42.925,-653,-24,673,18493,-22995,8605
2025-10-11 16:23:42.925,-693,-1,671,16052,-22995,8361
2025-10-11 16:23:42.925,-729,25,624,13916,-29648,6713
2025-10-11 16:23:42.967,-762,62,618,7141,29174,5310
2025-10-11 16:23:42.967,-793,61,615,-1281,16357,1342
2025-10-11 16:23:43.014,-768,62,590,-7141,7690,-1892
2025-10-11 16:23:43.015,-767,46,589,-9582,5676,-3967
2025-10-11 16:23:43.062,-762,25,593,-8483,3417,-2807
2025-10-11 16:23:43.063,-768,11,602,-6530,366,-732
2025-10-11 16:23:43.064,-771,12,625,-6103,-3723,-183
2025-10-11 16:23:43.111,-762,7,632,-4821,-5981,-2197
2025-10-11 16:23:43.112,-770,18,645,-5554,-7568,-4699
2025-10-11 16:23:43.160,-764,-7,650,-2624,-8911,-3356
2025-10-11 16:23:43.160,-743,-8,650,122,-6591,-915
2025-10-11 16:23:43.161,-755,5,664,-976,-3173,0
2025-10-11 16:23:43.215,-777,10,669,-2441,-3784,-3112
2025-10-11 16:23:43.215,-784,25,660,-6835,-9338,-6896
2025-10-11 16:23:43.258,-755,-10,651,-5676,-8605,-6164
2025-10-11 16:23:43.258,-752,-15,661,-1403,-5310,-2380
2025-10-11 16:23:43.307,-769,-13,672,549,-5493,-1525
2025-10-11 16:23:43.307,-756,-4,673,0,-6469,-3479
2025-10-11 16:23:43.308,-753,0,675,-1342,-5310,-3784
2025-10-11 16:23:43.355,-755,-32,678,2990,-3845,-732
2025-10-11 16:23:43.356,-746,-17,683,2868,-2990,-366
2025-10-11 16:23:43.404,-745,-9,684,1159,-732,-671
2025-10-11 16:23:43.404,-769,-10,685,-1098,-2014,-2136
2025-10-11 16:23:43.405,-783,-17,689,-3417,-10864,-3479
2025-10-11 16:23:43.468,-720,-24,655,-3784,-14465,-3051
2025-10-11 16:23:43.468,-711,-29,665,-61,-7812,-183
2025-10-11 16:23:43.508,-734,-19,682,854,-5004,-915
2025-10-11 16:23:43.509,-736,-30,686,366,-5065,-1464
2025-10-11 16:23:43.509,-738,-29,687,1586,-6164,-549
2025-10-11 16:23:43.599,-728,-20,685,122,-6225,-1098
2025-10-11 16:23:43.599,-732,-28,692,1281,-4882,-1098
2025-10-11 16:23:43.600,-741,-24,702,2197,-4028,-1586
2025-10-11 16:23:43.600,-739,-24,705,915,-3356,-1281
2025-10-11 16:23:43.647,-752,-24,713,1159,-3662,-854
2025-10-11 16:23:43.648,-752,-15,713,122,-6347,-2075
2025-10-11 16:23:43.649,-746,-15,708,122,-8728,-3784
2025-10-11 16:23:43.696,-739,-23,719,3784,-7751,-1708
2025-10-11 16:23:43.697,-770,3,738,-244,-15380,-1037
2025-10-11 16:23:43.750,-797,-36,730,7080,17563,2502
2025-10-11 16:23:43.750,-901,-19,768,14892,-28702,1464
2025-10-11 16:23:43.750,-842,50,723,16357,-14252,3234
2025-10-11 16:23:43.795,-697,80,666,2197,26870,14038
2025-10-11 16:23:43.795,-652,-117,673,-3540,-31159,17700
2025-10-11 16:23:43.843,-528,-80,817,-2807,-25055,-1403
2025-10-11 16:23:43.844,-483,43,978,2685,19240,-18066
2025-10-11 16:23:43.844,-486,8,885,3784,-6394,29770
2025-10-11 16:23:43.891,-297,34,837,3967,-26902,-30151
2025-10-11 16:23:43.892,-69,12,683,9338,4653,-4760
2025-10-11 16:23:43.940,20,52,920,-21850,6500,-9643
2025-10-11 16:23:43.941,-44,127,1050,3830,17425,-30517
2025-10-11 16:23:43.941,-29,-126,942,3403,23590,-21728
2025-10-11 16:23:43.988,57,-338,862,-17639,-11063,9155
2025-10-11 16:23:43.989,137,-267,990,16479,19760,15625
2025-10-11 16:23:44.038,99,-69,1029,19348,-21057,4882
2025-10-11 16:23:44.038,31,-27,1060,5371,-8422,2319
2025-10-11 16:23:44.088,-2,-84,1037,-4211,-9155,4638
2025-10-11 16:23:44.088,0,-95,1032,-6958,-11901,8911
2025-10-11 16:23:44.089,23,-113,1053,-5249,-13305,8361
2025-10-11 16:23:44.135,30,-123,1053,4211,-6835,1892
2025-10-11 16:23:44.136,22,-83,1060,6652,-2563,671
2025-10-11 16:23:44.183,24,-72,1070,3540,-793,1098
2025-10-11 16:23:44.184,29,-69,1066,-244,-976,2380
2025-10-11 16:23:44.185,34,-101,1066,-1220,366,5981
2025-10-11 16:23:44.232,46,-113,1074,-732,2014,3845
2025-10-11 16:23:44.233,48,-98,1055,488,5187,2868
2025-10-11 16:23:44.281,42,-107,1040,2807,10986,5310
2025-10-11 16:23:44.282,33,-76,1037,1403,15869,4882
2025-10-11 16:23:44.282,19,-69,1037,-1586,19165,4699
2025-10-11 16:23:44.337,0,-82,1031,-1220,17578,5249
2025-10-11 16:23:44.337,-6,-100,1026,-1342,13427,5126
2025-10-11 16:23:44.379,11,-96,1009,-305,16418,3906
2025-10-11 16:23:44.380,2,-79,1010,1098,24475,1403
2025-10-11 16:23:44.380,-36,-63,1006,732,27404,-183
2025-10-11 16:23:44.428,-74,-70,1004,-1831,21972,183
2025-10-11 16:23:44.429,-73,-80,991,-2502,14465,0
2025-10-11 16:23:44.476,-65,-87,989,-1770,9765,-244
2025-10-11 16:23:44.477,-67,-94,995,732,6469,-1220
2025-10-11 16:23:44.478,-72,-85,995,2441,4150,-2380
2025-10-11 16:23:44.525,-64,-65,988,1647,5371,-1159
2025-10-11 16:23:44.525,-72,-69,1009,-915,5554,366
2025-10-11 16:23:44.594,-66,-87,1016,-2014,4333,-183
2025-10-11 16:23:44.595,-73,-102,1015,1281,2563,-610
2025-10-11 16:23:44.623,-72,-84,1008,4943,2380,-1159
2025-10-11 16:23:44.624,-66,-51,1013,2868,2868,-1953
2025-10-11 16:23:44.624,-74,-59,1019,-1647,2502,-2075
2025-10-11 16:23:44.672,-73,-93,1027,-2075,-305,-549
2025-10-11 16:23:44.673,-75,-111,1028,3662,-2380,183
2025-10-11 16:23:44.721,-65,-92,1044,7263,-3784,-3051
2025-10-11 16:23:44.721,-54,-61,1041,4516,610,-9765
2025-10-11 16:23:44.722,-77,-42,1017,-61,4760,-6164
2025-10-11 16:23:44.768,-75,-74,1026,-305,5371,-2807
2025-10-11 16:23:44.769,-81,-88,1027,2746,2624,549
2025-10-11 16:23:44.817,-75,-77,1019,3601,671,793
2025-10-11 16:23:44.818,-72,-63,1027,2624,366,-2319
2025-10-11 16:23:44.875,-80,-50,1017,1403,793,-1525
2025-10-11 16:23:44.875,-76,-57,1026,-671,1220,-366
2025-10-11 16:23:44.875,-78,-86,1028,-366,-305,-915
2025-10-11 16:23:44.919,-74,-77,1024,2319,-427,-2075
2025-10-11 16:23:44.919,-76,-69,1022,1159,305,-2136
2025-10-11 16:23:44.964,-64,-69,1018,732,1770,-1892
2025-10-11 16:23:44.964,-67,-79,1015,-244,3173,549
2025-10-11 16:23:44.965,-71,-89,1014,-549,3967,2136
2025-10-11 16:23:45.012,-73,-98,1022,1098,3417,2319
2025-10-11 16:23:45.013,-71,-95,1019,3234,2258,1159
2025-10-11 16:23:45.061,-67,-86,1008,4089,1403,-183
2025-10-11 16:23:45.062,-72,-77,993,4211,2136,305
2025-10-11 16:23:45.062,-82,-68,991,3234,2868,915
2025-10-11 16:23:45.110,-88,-59,992,1586,3662,976
2025-10-11 16:23:45.111,-96,-74,1006,3417,2136,854
2025-10-11 16:23:45.162,-91,-54,1016,3540,1464,366
2025-10-11 16:23:45.162,-88,-44,1015,915,366,183
2025-10-11 16:23:45.162,-90,-61,1023,-1647,-1159,0
2025-10-11 16:23:45.209,-88,-81,1022,-488,-2807,0
2025-10-11 16:23:45.210,-82,-71,1031,1525,-2746,-366
2025-10-11 16:23:45.257,-80,-56,1037,1770,-1159,0
2025-10-11 16:23:45.258,-82,-56,1043,122,-244,-366
2025-10-11 16:23:45.258,-81,-67,1038,-854,-366,-549
2025-10-11 16:23:45.305,-81,-76,1029,-61,-61,122
2025-10-11 16:23:45.305,-90,-76,1032,1647,244,-61
2025-10-11 16:23:45.354,-91,-49,1026,976,671,-183
2025-10-11 16:23:45.354,-86,-68,1027,976,244,0
2025-10-11 16:23:45.402,-89,-72,1019,1159,-549,-610
2025-10-11 16:23:45.403,-80,-74,1017,732,-1098,183
2025-10-11 16:23:45.404,-72,-77,1012,1953,61,-366
2025-10-11 16:23:45.458,-80,-70,1002,2563,732,244
2025-10-11 16:23:45.458,-92,-63,1001,1525,-549,305
2025-10-11 16:23:45.501,-95,-61,1002,1892,-2197,244
2025-10-11 16:23:45.502,-93,-52,1006,1892,-3723,122
2025-10-11 16:23:45.502,-81,-56,1014,915,-2746,732
2025-10-11 16:23:45.549,-68,-61,1024,976,-732,-305
2025-10-11 16:23:45.550,-83,-58,1028,1159,-915,-671
2025-10-11 16:23:45.598,-84,-57,1027,488,-2380,-610
2025-10-11 16:23:45.598,-75,-54,1030,-244,-2990,-366
2025-10-11 16:23:45.599,-75,-57,1031,-305,-2990,-122
2025-10-11 16:23:45.646,-75,-58,1030,-549,-2990,244
2025-10-11 16:23:45.647,-66,-58,1034,61,-732,-488
2025-10-11 16:23:45.697,-69,-56,1033,976,1586,-610
2025-10-11 16:23:45.697,-75,-64,1029,854,1892,-488
2025-10-11 16:23:45.752,-82,-71,1023,2380,-1403,183
2025-10-11 16:23:45.752,-78,-63,1012,3723,-2502,488
2025-10-11 16:23:45.752,-77,-49,1009,4150,-1403,854
2025-10-11 16:23:45.792,-74,-42,1010,2319,427,-427
2025-10-11 16:23:45.793,-82,-50,1009,366,976,-427
2025-10-11 16:23:45.841,-83,-72,1017,793,-610,0
2025-10-11 16:23:45.842,-80,-60,1017,2197,-1953,-854
2025-10-11 16:23:45.843,-76,-42,1014,1525,-1586,0
2025-10-11 16:23:45.890,-76,-54,1015,0,-1220,244
2025-10-11 16:23:45.890,-79,-63,1022,854,-793,366
2025-10-11 16:23:45.938,-72,-57,1027,2136,-854,-305
2025-10-11 16:23:45.939,-78,-53,1028,1464,-1403,-732
2025-10-11 16:23:45.940,-71,-55,1024,122,-1708,-244
2025-10-11 16:23:46.003,-66,-52,1023,-610,-122,427
2025-10-11 16:23:46.003,-73,-56,1030,-1098,-122,915
2025-10-11 16:23:46.037,-72,-63,1033,-854,-915,549
2025-10-11 16:23:46.040,-72,-67,1030,671,-1708,244
2025-10-11 16:23:46.085,-70,-54,1025,1159,-1708,305
2025-10-11 16:23:46.087,-72,-47,1025,366,-1586,244
2025-10-11 16:23:46.088,-67,-48,1018,-793,-1098,-122
2025-10-11 16:23:46.134,-59,-58,1012,-366,1586,-122
2025-10-11 16:23:46.134,-68,-66,1007,549,1342,0
2025-10-11 16:23:46.182,-75,-57,1002,427,-183,732
2025-10-11 16:23:46.183,-72,-45,997,-122,-1159,1220
2025-10-11 16:23:46.184,-73,-49,990,-976,-1159,1220
2025-10-11 16:23:46.232,-81,-51,998,-1342,-1708,183
2025-10-11 16:23:46.233,-76,-55,1001,-427,-2685,-305
2025-10-11 16:23:46.319,-77,-58,1010,915,-3295,-122
2025-10-11 16:23:46.320,-69,-51,1015,122,-3356,183
2025-10-11 16:23:46.320,-66,-53,1018,-854,-3051,305
2025-10-11 16:23:46.333,-67,-58,1021,-671,-2807,-122
2025-10-11 16:23:46.333,-63,-60,1024,610,-2563,-488
2025-10-11 16:23:46.382,-60,-53,1021,61,-2197,-244
2025-10-11 16:23:46.382,-61,-51,1021,-1770,-2746,-488
2025-10-11 16:23:46.382,-57,-63,1016,-1464,-2807,-305
2025-10-11 16:23:46.427,-61,-66,1015,549,-2441,-305
2025-10-11 16:23:46.428,-64,-60,1022,1159,-2563,-244
2025-10-11 16:23:46.475,-61,-55,1023,1159,-2563,-305
2025-10-11 16:23:46.476,-59,-58,1029,1647,-1647,-305
2025-10-11 16:23:46.524,-67,-47,1036,1953,-1220,-671
2025-10-11 16:23:46.525,-70,-49,1044,1831,-2807,-1098
2025-10-11 16:23:46.525,-51,-43,1040,854,-2746,-1525
2025-10-11 16:23:46.572,-61,-53,1044,0,-1586,-1098
2025-10-11 16:23:46.573,-59,-55,1056,183,-1464,-976
2025-10-11 16:23:46.646,-49,-53,1052,1220,-671,-1403
2025-10-11 16:23:46.646,-47,-62,1048,1525,-366,-1037
2025-10-11 16:23:46.646,-42,-64,1044,2014,610,-122
2025-10-11 16:23:46.673,-46,-54,1043,1037,2258,122
2025-10-11 16:23:46.673,-51,-54,1034,-183,2868,-244
2025-10-11 16:23:46.720,-60,-63,1028,1037,1953,61
2025-10-11 16:23:46.721,-52,-56,1024,1464,1159,-915
2025-10-11 16:23:46.722,-61,-51,1016,122,1220,-305
2025-10-11 16:23:46.767,-63,-63,1015,244,1037,-61
2025-10-11 16:23:46.768,-59,-55,1014,1342,1342,-244
2025-10-11 16:23:46.816,-60,-51,1010,1464,1464,-244
2025-10-11 16:23:46.817,-64,-59,1008,1342,488,-427
2025-10-11 16:23:46.865,-52,-61,999,1953,915,0
2025-10-11 16:23:46.866,-53,-58,995,2624,1403,-244
2025-10-11 16:23:46.866,-57,-47,994,1220,549,-305
2025-10-11 16:23:46.936,-61,-57,994,610,-915,-122
2025-10-11 16:23:46.936,-61,-63,1000,2441,-2380,-305
2025-10-11 16:23:46.963,-58,-42,1005,2441,-1159,-732
2025-10-11 16:23:46.963,-62,-43,1004,1647,-183,-610
2025-10-11 16:23:46.966,-68,-56,1010,2014,-1098,-244
2025-10-11 16:23:47.012,-67,-55,1011,3295,-2441,183
2025-10-11 16:23:47.013,-67,-45,1019,4028,-3051,61
2025-10-11 16:23:47.060,-58,-24,1024,2563,-2929,-305
2025-10-11 16:23:47.061,-56,-22,1023,-1403,-2136,-793
2025-10-11 16:23:47.061,-63,-60,1029,-1403,-2502,-122
2025-10-11 16:23:47.109,-54,-70,1037,2563,-2563,-610
2025-10-11 16:23:47.109,-49,-31,1039,2075,-793,-1159
2025-10-11 16:23:47.157,-54,-29,1035,0,732,-183
2025-10-11 16:23:47.158,-46,-39,1027,-1586,1037,-427
2025-10-11 16:23:47.224,-43,-60,1023,-183,183,-549
2025-10-11 16:23:47.224,-47,-51,1016,549,-1708,-915
2025-10-11 16:23:47.224,-47,-53,1014,0,-3417,0
2025-10-11 16:23:47.255,-42,-41,1021,-366,-2624,671
2025-10-11 16:23:47.256,-44,-32,1024,-2075,-732,793
2025-10-11 16:23:47.304,-57,-28,1031,-4333,183,610
2025-10-11 16:23:47.305,-62,-45,1035,-4699,0,732
2025-10-11 16:23:47.305,-60,-64,1036,-732,-671,-366
2025-10-11 16:23:47.352,-61,-52,1054,671,-2014,-1037
2025-10-11 16:23:47.353,-61,-32,1063,-2136,-3356,-1037
2025-10-11 16:23:47.402,-55,-44,1065,-4394,-3356,-854
2025-10-11 16:23:47.402,-49,-60,1062,-3112,-1708,-488
2025-10-11 16:23:47.403,-49,-64,1061,427,1892,671
2025-10-11 16:23:47.450,-42,-42,1064,2441,6347,2441
2025-10-11 16:23:47.451,-36,-33,1061,2624,12817,7629
2025-10-11 16:23:47.512,-39,-42,1059,2075,18676,15258
2025-10-11 16:23:47.512,-37,-38,1047,2258,23559,23925
2025-10-11 16:23:47.512,-29,-57,1046,2746,-29770,27770
2025-10-11 16:23:47.557,82,-66,963,6652,3860,21972
2025-10-11 16:23:47.557,42,-46,964,5065,-11444,15930
2025-10-11 16:23:47.597,-76,-22,949,6652,-31753,13122
2025-10-11 16:23:47.598,-144,-55,931,18554,4991,22583
2025-10-11 16:23:47.645,-254,-159,944,11474,9507,7751
2025-10-11 16:23:47.645,-401,41,867,-122,16892,4150
2025-10-11 16:23:47.646,-599,54,861,-16967,11338,3479
2025-10-11 16:23:47.694,-589,35,895,-18676,11399,2319
2025-10-11 16:23:47.694,-769,-74,764,-183,-15517,-122
2025-10-11 16:23:47.742,-873,-22,715,-3173,-23590,-12145
2025-10-11 16:23:47.743,-779,-22,713,-4821,-2548,-5615
2025-10-11 16:23:47.744,-727,-48,695,4699,-22812,-1464
2025-10-11 16:23:47.797,-738,-43,716,8422,32409,-5493
2025-10-11 16:23:47.797,-752,-11,703,6652,16723,-10009
2025-10-11 16:23:47.889,-713,-9,666,-1892,11230,-10131
2025-10-11 16:23:47.889,-713,-52,677,-3540,10009,-6774
2025-10-11 16:23:47.890,-726,-62,672,-1159,7629,-3234
2025-10-11 16:23:47.890,-714,-62,668,3417,7568,-854
2025-10-11 16:23:47.937,-725,-38,677,4272,11291,183
2025-10-11 16:23:47.938,-737,-32,679,1831,14221,-2319
2025-10-11 16:23:47.939,-757,-35,670,-2319,11230,-4882
2025-10-11 16:23:47.939,-744,-44,656,-2014,8361,-4455
2025-10-11 16:23:47.986,-737,-38,652,-427,8056,-1464
2025-10-11 16:23:47.986,-742,-37,653,-244,7263,915
2025-10-11 16:23:48.036,-753,-31,660,-122,8056,2685
2025-10-11 16:23:48.036,-767,-21,660,122,4211,2258
2025-10-11 16:23:48.093,-766,-11,649,-1831,-1098,-427
2025-10-11 16:23:48.093,-750,-7,641,-3417,-3540,-1403
2025-10-11 16:23:48.093,-742,-15,646,-4577,-1708,-183
2025-10-11 16:23:48.134,-755,-24,656,122,-3173,-61
2025-10-11 16:23:48.134,-755,-13,660,1281,-5432,-488
2025-10-11 16:23:48.182,-750,-6,658,-610,-6103,-1586
2025-10-11 16:23:48.182,-736,-9,665,-4028,-2990,-3784
2025-10-11 16:23:48.183,-744,-26,674,-3784,-2014,-4577
2025-10-11 16:23:48.231,-741,-37,675,-244,-1770,-2929
2025-10-11 16:23:48.231,-755,-34,677,2502,-3662,-366
2025-10-11 16:23:48.279,-745,-20,674,1892,-3051,-305
2025-10-11 16:23:48.279,-750,-22,677,-61,-1708,-854
2025-10-11 16:23:48.280,-766,-26,680,-183,-2868,-1220
2025-10-11 16:23:48.328,-751,-33,682,1708,-1220,-854
2025-10-11 16:23:48.329,-758,-29,692,-183,-1525,-1953
2025-10-11 16:23:48.378,-757,-35,684,-2136,-3417,-2258
2025-10-11 16:23:48.378,-752,-25,681,-4516,-4577,-1525
2025-10-11 16:23:48.425,-759,-28,683,-6103,-5981,-488
2025-10-11 16:23:48.426,-760,-33,685,-5920,-9765,-1220
2025-10-11 16:23:48.426,-753,-39,687,-2990,-12939,-2746
2025-10-11 16:23:48.474,-736,-26,681,-2258,-12451,-5249
2025-10-11 16:23:48.475,-723,-35,689,-1770,-7446,-5981
2025-10-11 16:23:48.523,-731,-51,694,915,-4577,-3723
2025-10-11 16:23:48.523,-727,-54,691,1708,-4516,305
2025-10-11 16:23:48.524,-724,-33,690,976,-5798,1586
2025-10-11 16:23:48.571,-718,-44,682,1892,-6591,1586
2025-10-11 16:23:48.572,-721,-36,688,4516,-4760,915
2025-10-11 16:23:48.632,-726,-24,702,3662,-2685,-732
2025-10-11 16:23:48.632,-733,-36,713,1647,-1342,-2380
2025-10-11 16:23:48.632,-740,-35,718,-1281,-3112,-2990
2025-10-11 16:23:48.671,-751,-47,716,-2563,-8850,-976
2025-10-11 16:23:48.672,-757,-43,717,-793,-17639,2868
2025-10-11 16:23:48.717,-756,-37,717,-1037,-28381,5249
2025-10-11 16:23:48.718,-737,-19,713,-8850,26230,3845
2025-10-11 16:23:48.767,-758,-8,746,-9826,16464,1708
2025-10-11 16:23:48.767,-782,22,771,-30273,-9842,-2624
2025-10-11 16:23:48.768,-784,-3,778,17929,21575,-2136
2025-10-11 16:23:48.816,-768,-26,783,6027,-15961,3112
2025-10-11 16:23:48.816,-683,-39,807,-5203,11306,5371
2025-10-11 16:23:48.864,-763,-55,822,14633,-21165,7141
2025-10-11 16:23:48.864,-752,-126,807,17014,14037,5004
2025-10-11 16:23:48.866,-381,-190,802,7919,-23073,4272
2025-10-11 16:23:48.915,-74,-384,689,-16556,8528,549
2025-10-11 16:23:48.915,96,-457,744,-18295,-1833,-12512
2025-10-11 16:23:48.961,173,-88,860,-19516,32591,-1037
2025-10-11 16:23:48.963,296,-33,811,31921,-30427,6408
2025-10-11 16:23:48.964,383,-108,902,20507,-13443,-2563
2025-10-11 16:23:49.011,366,-146,985,12817,-11474,-16296
2025-10-11 16:23:49.012,280,-155,999,7690,28198,-21850
2025-10-11 16:23:49.059,183,-193,1008,7385,-24887,-15747
2025-10-11 16:23:49.059,134,-213,1032,15808,-28366,-3112
2025-10-11 16:23:49.060,96,-154,1054,16174,24230,2929
2025-10-11 16:23:49.107,79,-108,1061,-122,5249,5493
2025-10-11 16:23:49.108,118,-164,1050,-9765,-6347,-427
2025-10-11 16:23:49.156,158,-218,1052,18798,6469,-7568
2025-10-11 16:23:49.156,138,-128,1069,24230,13366,-8300
2025-10-11 16:23:49.210,123,-96,1085,18188,14831,-5187
2025-10-11 16:23:49.210,124,-102,1094,9216,12512,61
2025-10-11 16:23:49.210,127,-106,1088,610,10070,4943
2025-10-11 16:23:49.255,130,-111,1062,-7873,11108,5798
2025-10-11 16:23:49.255,139,-164,1046,-2807,20080,3540
2025-10-11 16:23:49.303,118,-136,1043,9704,30700,305
2025-10-11 16:23:49.303,79,-85,1045,7751,-32028,1831
2025-10-11 16:23:49.304,54,-94,1035,-915,29296,3540
2025-10-11 16:23:49.351,36,-102,1023,-2319,24353,5310
2025-10-11 16:23:49.352,28,-116,1006,-2685,18798,5249
2025-10-11 16:23:49.400,23,-129,998,2502,16418,3906
2025-10-11 16:23:49.400,14,-101,996,7385,14282,1892
2025-10-11 16:23:49.401,5,-76,991,3112,9277,549
2025-10-11 16:23:49.472,4,-83,983,-1281,3417,244
2025-10-11 16:23:49.472,2,-104,973,-2319,-2075,122
2025-10-11 16:23:49.499,9,-114,962,-610,-6042,-732
2025-10-11 16:23:49.499,16,-108,965,3540,-6408,-1647
2025-10-11 16:23:49.546,21,-97,972,6103,-3967,-3906
2025-10-11 16:23:49.548,27,-81,977,4211,-2075,-2624
2025-10-11 16:23:49.548,18,-90,995,1831,-1403,-671
2025-10-11 16:23:49.595,16,-99,1009,-61,-1892,183
2025-10-11 16:23:49.596,37,-119,1012,1159,-1037,-305
2025-10-11 16:23:49.644,29,-119,1024,7995,1159,-1403
2025-10-11 16:23:49.644,16,-92,1029,4882,-793,-2197
2025-10-11 16:23:49.645,23,-90,1032,2075,-1892,-61
2025-10-11 16:23:49.692,30,-89,1040,-244,-2929,244
2025-10-11 16:23:49.693,32,-104,1039,-3356,-4089,488
2025-10-11 16:23:49.753,38,-128,1039,3540,-1342,549
2025-10-11 16:23:49.753,42,-90,1047,4760,2563,732
2025-10-11 16:23:49.753,27,-78,1049,2136,3845,-671
2025-10-11 16:23:49.791,18,-81,1038,-2746,2746,-976
2025-10-11 16:23:49.791,26,-114,1033,1586,2319,-305
2025-10-11 16:23:49.839,15,-94,1036,2624,-793,-1953
2025-10-11 16:23:49.839,23,-66,1024,-1770,-2014,-244
2025-10-11 16:23:49.840,43,-94,1024,854,1708,2197
2025-10-11 16:23:49.887,34,-102,1026,732,4882,-244
2025-10-11 16:23:49.888,30,-102,1028,3662,7263,-183
2025-10-11 16:23:49.937,22,-87,1030,488,5310,-488
2025-10-11 16:23:49.938,16,-87,1016,-2868,3417,244
2025-10-11 16:23:49.985,17,-104,1014,-976,2685,488
2025-10-11 16:23:49.986,16,-107,1014,-610,1403,-488
2025-10-11 16:23:49.987,21,-108,1014,3112,2136,-1403
2025-10-11 16:23:50.034,20,-85,1013,3356,3784,-2685
2025-10-11 16:23:50.036,18,-69,1006,-1403,4882,-1098
2025-10-11 16:23:50.084,18,-87,1007,-4272,6958,2014
2025-10-11 16:23:50.086,12,-107,1010,-5249,9094,2136
2025-10-11 16:23:50.087,8,-111,1018,-2990,11413,671
2025-10-11 16:23:50.132,0,-95,1020,-3112,14038,-305
2025-10-11 16:23:50.132,-25,-106,1025,-4882,11962,915
2025-10-11 16:23:50.180,-23,-132,1025,61,8972,1403
2025-10-11 16:23:50.180,-26,-122,1026,2685,5187,61
2025-10-11 16:23:50.181,-26,-98,1025,2380,2319,-305
2025-10-11 16:23:50.228,-20,-96,1027,1525,1220,-244
2025-10-11 16:23:50.229,-21,-105,1028,1037,854,-1525
2025-10-11 16:23:50.277,-20,-101,1029,2258,1281,-1098
2025-10-11 16:23:50.278,-12,-94,1025,610,2075,-122
2025-10-11 16:23:50.331,-16,-97,1025,-915,3051,854
2025-10-11 16:23:50.331,-23,-107,1027,-1464,2868,427
2025-10-11 16:23:50.331,-27,-108,1024,1159,2441,-366
2025-10-11 16:23:50.375,-28,-91,1014,-793,1159,-1159
2025-10-11 16:23:50.376,-32,-89,1009,-1708,1037,-61
2025-10-11 16:23:50.424,-40,-86,1016,-3417,-549,183
2025-10-11 16:23:50.425,-24,-98,1012,-5310,-1098,122
2025-10-11 16:23:50.425,-17,-127,1013,1281,915,-732
2025-10-11 16:23:50.473,-30,-103,1012,2502,427,-2868
2025-10-11 16:23:50.474,-33,-84,1010,-1464,-1281,-1159
2025-10-11 16:23:50.522,-25,-108,1013,-2868,-2258,427
2025-10-11 16:23:50.522,-21,-116,1016,-2380,-2929,-610
2025-10-11 16:23:50.523,-18,-115,1019,-122,-2197,-671
2025-10-11 16:23:50.593,-19,-105,1015,1159,-854,-1281
2025-10-11 16:23:50.594,-23,-106,1019,1586,-244,-1159
2025-10-11 16:23:50.621,-24,-104,1023,1892,-61,-1403
2025-10-11 16:23:50.621,-25,-102,1023,-122,-1281,-1647
2025-10-11 16:23:50.621,-18,-112,1021,244,-1464,-671
2025-10-11 16:23:50.668,-11,-110,1022,427,-366,-366
2025-10-11 16:23:50.669,-17,-101,1021,-1464,0,-732
2025-10-11 16:23:50.717,-19,-101,1019,-2990,0,-488
2025-10-11 16:23:50.717,-13,-100,1019,-5249,1220,-1098
2025-10-11 16:23:50.765,-20,-97,1010,-9521,1586,-915
2025-10-11 16:23:50.765,-28,-126,1010,-12390,-122,61
2025-10-11 16:23:50.766,-24,-177,1013,-5004,-732,2075
2025-10-11 16:23:50.814,-21,-166,1027,5737,-549,-305
2025-10-11 16:23:50.814,-23,-87,1023,2746,-732,-2380
2025-10-11 16:23:50.873,-24,-80,1021,-2197,305,61
2025-10-11 16:23:50.873,-21,-127,1021,-4333,732,-366
2025-10-11 16:23:50.873,-25,-145,1023,244,183,-1037
2025-10-11 16:23:50.916,-28,-133,1023,1708,-2136,-1220
2025-10-11 16:23:50.916,-15,-114,1022,549,-1892,-549
2025-10-11 16:23:51.009,-10,-116,1022,1647,1037,-854
2025-10-11 16:23:51.010,-23,-110,1019,-1464,1586,-1831
2025-10-11 16:23:51.011,-20,-139,1009,-1708,1159,-488
2025-10-11 16:23:51.057,-20,-156,1008,3662,-122,-1220
2025-10-11 16:23:51.058,-29,-119,1005,2258,-2807,-1708
2025-10-11 16:23:51.059,-20,-109,1008,1281,-2441,976
2025-10-11 16:23:51.060,-12,-115,1014,305,-732,-244
2025-10-11 16:23:51.107,-19,-107,1014,-244,1037,-671
2025-10-11 16:23:51.107,-28,-120,1011,-61,793,-366
2025-10-11 16:23:51.108,-29,-121,1010,0,-1586,-915
2025-10-11 16:23:51.157,-20,-123,1006,0,-2441,-732
2025-10-11 16:23:51.157,-17,-117,1007,-427,-2014,-488
2025-10-11 16:23:51.206,-24,-110,1010,-3051,-1892,-488
2025-10-11 16:23:51.206,-25,-115,1017,-6164,-2563,-671
2025-10-11 16:23:51.206,-17,-160,1021,-1586,-2807,0
2025-10-11 16:23:51.253,-8,-157,1020,6530,-976,-1953
2025-10-11 16:23:51.254,-18,-99,1026,3479,-915,-2258
2025-10-11 16:23:51.301,-14,-107,1021,-3356,-1647,122
2025-10-11 16:23:51.302,-7,-148,1024,-2380,-488,305
2025-10-11 16:23:51.303,-15,-142,1021,1770,-427,-427
2025-10-11 16:23:51.350,-10,-122,1023,3601,-61,-244
2025-10-11 16:23:51.350,-12,-105,1025,1098,549,-427
2025-10-11 16:23:51.399,-11,-116,1025,-366,1037,-61
2025-10-11 16:23:51.399,-12,-136,1026,671,732,-427
2025-10-11 16:23:51.400,-13,-130,1024,2868,244,-671
2025-10-11 16:23:51.473,-10,-116,1022,2868,366,-61
2025-10-11 16:23:51.473,-14,-109,1025,1770,854,427
2025-10-11 16:23:51.510,-16,-109,1023,-976,244,-793
2025-10-11 16:23:51.510,-14,-123,1019,0,305,-732
2025-10-11 16:23:51.550,-18,-134,1019,2746,0,-915
2025-10-11 16:23:51.550,-9,-122,1023,4821,976,-793
2025-10-11 16:23:51.551,-16,-109,1023,1281,976,-1281
2025-10-11 16:23:51.594,-16,-123,1020,427,793,-183
2025-10-11 16:23:51.595,-12,-131,1015,1037,915,-732
2025-10-11 16:23:51.643,-15,-122,1013,1647,1525,-305
2025-10-11 16:23:51.644,-12,-119,1010,1220,2380,61
2025-10-11 16:23:51.644,-20,-125,1006,488,1586,-549
2025-10-11 16:23:51.692,-24,-129,999,2197,793,-244
2025-10-11 16:23:51.692,-21,-122,1001,3295,61,-427
2025-10-11 16:23:51.740,-25,-102,1003,1770,-793,-427
2025-10-11 16:23:51.741,-22,-102,1007,-244,-61,-61
2025-10-11 16:23:51.741,-20,-121,1013,1281,122,-549
2025-10-11 16:23:51.792,-21,-117,1009,1953,-488,-1708
2025-10-11 16:23:51.792,-25,-107,1005,1342,-610,-671
2025-10-11 16:23:51.841,-25,-117,1014,610,-1403,-427
2025-10-11 16:23:51.842,-20,-117,1015,1647,-1708,-1342
2025-10-11 16:23:51.842,-18,-112,1016,1953,-2014,-1403
2025-10-11 16:23:51.886,-16,-114,1025,2441,-1281,-305
2025-10-11 16:23:51.886,-18,-114,1033,915,-1953,-671
2025-10-11 16:23:51.936,-15,-115,1035,305,-1342,-244
2025-10-11 16:23:51.936,-19,-121,1038,1831,-549,-183
2025-10-11 16:23:51.984,-19,-108,1032,2075,-183,-488
2025-10-11 16:23:51.984,-17,-104,1025,2319,366,183
2025-10-11 16:23:51.985,-18,-122,1022,2868,122,-122
2025-10-11 16:23:52.032,-9,-117,1020,6225,-122,-671
2025-10-11 16:23:52.033,-6,-93,1016,3662,183,-1220
2025-10-11 16:23:52.090,-20,-93,1010,915,305,-610
2025-10-11 16:23:52.090,-16,-110,1013,-1037,-549,61
2025-10-11 16:23:52.090,-14,-120,1011,1159,-671,-488
2025-10-11 16:23:52.138,-13,-103,1003,2319,305,-549
2025-10-11 16:23:52.138,-16,-94,1002,-183,305,-854
2025-10-11 16:23:52.179,-26,-109,1012,-976,-1037,-366
2025-10-11 16:23:52.179,-21,-115,1018,549,-3479,-610
2025-10-11 16:23:52.180,-7,-101,1016,122,-3540,-610
2025-10-11 16:23:52.227,-10,-103,1031,305,-1525,244
2025-10-11 16:23:52.228,-6,-112,1043,305,-244,0
2025-10-11 16:23:52.276,-12,-103,1057,61,183,-488
2025-10-11 16:23:52.277,-19,-96,1067,-2868,-915,0
2025-10-11 16:23:52.325,-9,-104,1071,-4577,-793,488
2025-10-11 16:23:52.326,-8,-115,1086,-1953,3479,793
2025-10-11 16:23:52.326,-3,-101,1094,-3234,7995,1892
2025-10-11 16:23:52.380,14,-117,1092,183,19714,10009
2025-10-11 16:23:52.380,29,-176,1121,12451,-28305,15197
2025-10-11 16:23:52.427,18,-177,1114,18981,-17136,10437
2025-10-11 16:23:52.427,4,-140,1056,23315,-4990,9765
2025-10-11 16:23:52.427,-4,-140,1029,25390,12894,14038
2025-10-11 16:23:52.472,-13,-127,1010,30456,-31951,10803
2025-10-11 16:23:52.473,-30,-111,948,-24948,-4608,7934
2025-10-11 16:23:52.520,-54,-115,887,-8652,-30654,7202
2025-10-11 16:23:52.521,-171,-132,934,13931,12132,-11962
2025-10-11 16:23:52.522,-302,175,807,-4929,-32347,-31799
2025-10-11 16:23:52.569,-312,177,754,-26535,-4088,20554
2025-10-11 16:23:52.570,-874,145,772,7873,-16173,15427
2025-10-11 16:23:52.618,-845,5,752,13244,15855,9933
2025-10-11 16:23:52.618,-964,24,680,14282,10346,20981
2025-10-11 16:23:52.667,-897,18,651,6713,1785,-20324
2025-10-11 16:23:52.667,-744,-27,608,14892,22338,-2014
2025-10-11 16:23:52.668,-689,28,624,17639,12207,1403
2025-10-11 16:23:52.716,-718,105,656,1831,4394,-2441
2025-10-11 16:23:52.716,-719,69,651,-10314,-4882,-3845
2025-10-11 16:23:52.764,-711,-3,659,61,-915,-122
2025-10-11 16:23:52.764,-729,7,671,2014,183,4943
2025-10-11 16:23:52.765,-734,34,675,-61,2624,5004
2025-10-11 16:23:52.813,-757,61,682,-3356,2075,61
2025-10-11 16:23:52.814,-758,57,675,-8605,-1708,-7141
2025-10-11 16:23:52.862,-729,23,661,-9582,366,-10009
2025-10-11 16:23:52.863,-734,-3,668,-5981,5676,-7568
2025-10-11 16:23:52.863,-764,-15,680,915,4333,-1953
2025-10-11 16:23:52.911,-751,10,688,2990,1220,1220
2025-10-11 16:23:52.911,-739,26,693,-3845,4577,-2990
2025-10-11 16:23:52.969,-746,20,696,-8178,7263,-3906
2025-10-11 16:23:52.969,-755,-15,691,-5432,4638,-2441
2025-10-11 16:23:52.969,-753,-19,679,1220,-1220,1037
2025-10-11 16:23:53.009,-708,16,666,244,1037,2807
2025-10-11 16:23:53.009,-732,17,677,-4150,5981,1281
2025-10-11 16:23:53.057,-750,15,670,-3479,5493,-1464
2025-10-11 16:23:53.057,-749,19,660,-2746,3295,-2319
2025-10-11 16:23:53.105,-743,19,648,-2319,1586,-2197
2025-10-11 16:23:53.106,-743,21,650,-3540,1708,-2868
2025-10-11 16:23:53.106,-754,16,652,-4394,-1220,-1342
2025-10-11 16:23:53.154,-741,4,651,-732,-2136,-427
2025-10-11 16:23:53.155,-748,17,658,122,-2990,-2136
2025-10-11 16:23:53.202,-743,9,660,244,-3601,-2624
2025-10-11 16:23:53.203,-740,9,664,366,-3601,-2319
2025-10-11 16:23:53.204,-748,9,674,-1586,-3173,-2929
2025-10-11 16:23:53.257,-751,-2,684,-1953,-3112,-2563
2025-10-11 16:23:53.257,-769,-7,699,2014,-5004,-1892
2025-10-11 16:23:53.349,-761,6,695,610,-7995,-1403
2025-10-11 16:23:53.349,-764,-2,704,-2197,-9399,-122
2025-10-11 16:23:53.350,-748,-18,706,3234,-6835,3112
2025-10-11 16:23:53.351,-781,16,725,3967,-8666,1647
2025-10-11 16:23:53.397,-816,23,731,427,-21667,-1770
2025-10-11 16:23:53.398,-893,19,757,-915,8957,-6591
2025-10-11 16:23:53.398,-905,59,721,122,24261,-4760
2025-10-11 16:23:53.399,-832,40,693,-6103,-23530,16723
2025-10-11 16:23:53.447,-738,-76,673,9887,20461,-19638
2025-10-11 16:23:53.448,-675,-194,677,-23422,23025,-12802
2025-10-11 16:23:53.515,-610,-92,812,26733,21926,16662
2025-10-11 16:23:53.516,-431,247,955,17456,1601,20080
2025-10-11 16:23:53.545,-321,189,868,16953,20140,31066
2025-10-11 16:23:53.545,-210,-58,855,-21194,17394,6958
2025-10-11 16:23:53.546,-23,-105,855,18784,-13841,9704
2025-10-11 16:23:53.593,90,-22,860,9765,-24628,-28000
2025-10-11 16:23:53.595,45,-2,988,2075,6927,-28366
2025-10-11 16:23:53.642,37,113,1015,30014,26519,2136
2025-10-11 16:23:53.642,76,135,928,-6302,-21439,1953
2025-10-11 16:23:53.643,170,-219,921,29160,24033,19409
2025-10-11 16:23:53.690,205,-274,1021,29235,5493,-3845
2025-10-11 16:23:53.691,73,27,1030,29357,17333,-20690
2025-10-11 16:23:53.739,24,120,1024,-8850,10253,915
2025-10-11 16:23:53.740,62,-51,1061,-21179,-61,1770
2025-10-11 16:23:53.740,87,-96,1055,-16906,-4699,-122
2025-10-11 16:23:53.800,104,-129,1060,-3540,-1892,-1159
2025-10-11 16:23:53.800,93,-85,1072,11474,5065,-3356
2025-10-11 16:23:53.842,71,2,1071,9582,8666,-2441
2025-10-11 16:23:53.842,56,8,1080,-2929,7995,732
2025-10-11 16:23:53.886,68,-46,1076,-10070,7385,2197
2025-10-11 16:23:53.886,63,-85,1079,-2990,10803,2380
2025-10-11 16:23:53.886,51,-83,1079,2685,11901,-732
2025-10-11 16:23:53.934,37,-62,1063,4394,10559,-1647
2025-10-11 16:23:53.934,31,-41,1040,915,10375,61
2025-10-11 16:23:53.982,29,-45,1038,-2136,11901,3173
2025-10-11 16:23:53.983,22,-68,1031,-6530,11169,3784
2025-10-11 16:23:53.984,12,-102,1031,-4028,10498,3356
2025-10-11 16:23:54.031,9,-101,1026,5187,9460,732
2025-10-11 16:23:54.032,-1,-60,1007,5859,7202,-2380
2025-10-11 16:23:54.084,-5,-40,1003,2563,5493,-1159
2025-10-11 16:23:54.084,1,-51,1003,-671,4516,2502
2025-10-11 16:23:54.084,7,-81,1009,-1220,4211,1953
2025-10-11 16:23:54.130,3,-77,1009,2685,2380,0
2025-10-11 16:23:54.130,-12,-48,997,0,1708,1403
2025-10-11 16:23:54.178,-2,-55,1007,2624,2685,1098
2025-10-11 16:23:54.179,-4,-32,1002,732,3173,-122
2025-10-11 16:23:54.226,-8,-46,1015,1037,3356,549
2025-10-11 16:23:54.227,-11,-48,1012,1831,1770,-366
2025-10-11 16:23:54.227,-14,-41,1002,-2624,-1159,1098
2025-10-11 16:23:54.276,9,-65,1015,-183,1220,3784
2025-10-11 16:23:54.276,-6,-53,1023,3173,2807,549
2025-10-11 16:23:54.324,-28,-45,1023,-1708,-732,-1708
2025-10-11 16:23:54.325,-9,-78,1023,8544,-549,-3662
2025-10-11 16:23:54.325,-13,-12,1020,4882,-2319,-3723
2025-10-11 16:23:54.374,-8,-26,1018,-5432,-2868,1464
2025-10-11 16:23:54.374,2,-68,1032,-2746,-122,2624
2025-10-11 16:23:54.423,4,-70,1036,-915,1525,1281
2025-10-11 16:23:54.424,-1,-63,1043,5981,4333,-61
2025-10-11 16:23:54.425,-7,-37,1040,4516,4638,-976
2025-10-11 16:23:54.470,-10,-35,1041,488,4699,-366
2025-10-11 16:23:54.471,-15,-51,1040,-1037,3356,-488
2025-10-11 16:23:54.519,-14,-55,1034,-183,1770,976
2025-10-11 16:23:54.519,-13,-59,1037,2075,61,366
2025-10-11 16:23:54.521,-9,-40,1029,2014,1525,1281
2025-10-11 16:23:54.568,-6,-42,1033,2319,4089,1098
2025-10-11 16:23:54.568,-10,-38,1033,1342,5676,244
2025-10-11 16:23:54.617,-14,-41,1031,183,5615,-1098
2025-10-11 16:23:54.617,-19,-53,1024,610,4882,-488
2025-10-11 16:23:54.670,-21,-44,1021,976,4150,305
2025-10-11 16:23:54.671,-21,-40,1014,-2258,2563,244
2025-10-11 16:23:54.671,-22,-64,1013,610,1892,305
2025-10-11 16:23:54.715,-28,-49,1005,3234,1586,-549
2025-10-11 16:23:54.716,-33,-31,1006,-122,671,610
2025-10-11 16:23:54.762,-24,-51,1016,1647,1159,488
2025-10-11 16:23:54.763,-31,-32,1017,2685,1037,-1464
2025-10-11 16:23:54.764,-29,-22,1011,-122,0,-1220
2025-10-11 16:23:54.811,-23,-43,1019,-122,427,-671
2025-10-11 16:23:54.812,-26,-55,1030,610,-854,-1586
2025-10-11 16:23:54.909,-29,-54,1033,427,-2319,-915
2025-10-11 16:23:54.936,-16,-52,1035,1403,-1403,-427
2025-10-11 16:23:54.936,-24,-36,1040,1892,427,-1281
2025-10-11 16:23:54.936,-26,-32,1042,-549,976,-732
2025-10-11 16:23:54.964,-26,-57,1048,1159,305,-1831
2025-10-11 16:23:54.964,-30,-54,1032,1159,549,-671
2025-10-11 16:23:54.964,-28,-59,1043,4760,1342,244
2025-10-11 16:23:54.964,-33,-28,1039,4150,1525,-1281
2025-10-11 16:23:55.055,-35,-26,1037,1770,1098,-854
2025-10-11 16:23:55.056,-18,-44,1020,1220,3540,-366
2025-10-11 16:23:55.056,-20,-44,1025,1220,5920,610
2025-10-11 16:23:55.057,-32,-47,1023,-3112,4211,671
2025-10-11 16:23:55.104,-38,-72,1025,-1464,1220,1831
2025-10-11 16:23:55.105,-30,-70,1010,2258,-61,549
2025-10-11 16:23:55.105,-39,-41,1012,4028,1403,976
2025-10-11 16:23:55.154,-37,-2,1015,-793,2868,488
2025-10-11 16:23:55.154,-47,-30,1019,-3234,3479,-305
2025-10-11 16:23:55.222,-50,-52,1025,732,1892,-976
2025-10-11 16:23:55.222,-53,-29,1017,427,-793,-2014
2025-10-11 16:23:55.223,-50,-31,1025,-610,-2014,-305
2025-10-11 16:23:55.300,-30,-40,1034,244,-1220,-1037
2025-10-11 16:23:55.302,-28,-46,1039,1281,427,-1953
2025-10-11 16:23:55.302,-37,-38,1035,976,1037,-2258
2025-10-11 16:23:55.348,-32,-42,1031,-1464,732,-1037
2025-10-11 16:23:55.349,-31,-53,1031,671,1708,-732
2025-10-11 16:23:55.350,-38,-41,1025,122,1586,-732
2025-10-11 16:23:55.397,-38,-50,1023,-549,549,-122
2025-10-11 16:23:55.398,-37,-52,1020,2075,549,-1037
2025-10-11 16:23:55.399,-45,-29,1018,1586,549,-1159
2025-10-11 16:23:55.445,-41,-29,1022,61,1342,-549
2025-10-11 16:23:55.446,-42,-36,1019,0,2197,-1831
2025-10-11 16:23:55.447,-48,-39,1014,-1403,1770,-1403
2025-10-11 16:23:55.508,-49,-56,1021,-732,-305,-1403
2025-10-11 16:23:55.508,-41,-47,1018,1525,-854,-1770
2025-10-11 16:23:55.545,-39,-30,1021,-732,-976,-1342
2025-10-11 16:23:55.545,-36,-48,1015,-1525,-61,-854
2025-10-11 16:23:55.545,-40,-53,1022,366,427,-854
2025-10-11 16:23:55.595,-43,-38,1024,793,0,-915
2025-10-11 16:23:55.596,-46,-33,1027,-793,-793,-1220
2025-10-11 16:23:55.640,-41,-48,1030,-61,-854,-1770
2025-10-11 16:23:55.641,-36,-45,1032,1892,0,-2563
2025-10-11 16:23:55.642,-32,-37,1027,-549,793,-1098
2025-10-11 16:23:55.689,-35,-51,1023,-2014,1342,366
2025-10-11 16:23:55.690,-43,-61,1020,-305,1159,793
2025-10-11 16:23:55.738,-47,-47,1018,3540,488,-732
2025-10-11 16:23:55.738,-52,-9,1013,-244,-793,-549
2025-10-11 16:23:55.739,-44,-34,1009,-2014,-549,-61
2025-10-11 16:23:55.798,-39,-52,1012,976,671,-915
2025-10-11 16:23:55.798,-44,-46,1012,2258,61,-1098
2025-10-11 16:23:55.843,-45,-41,1012,1525,-793,-915
2025-10-11 16:23:55.843,-42,-35,1018,122,-1220,-671
2025-10-11 16:23:55.884,-47,-40,1029,-610,-2136,-854
2025-10-11 16:23:55.884,-40,-49,1024,-488,-2197,-1037
2025-10-11 16:23:55.885,-33,-52,1024,1281,-976,-1403
2025-10-11 16:23:55.933,-38,-49,1024,1892,-427,-610
2025-10-11 16:23:55.933,-48,-43,1033,-305,-2258,-61
2025-10-11 16:23:55.982,-31,-44,1028,-610,-1708,122
2025-10-11 16:23:55.982,-30,-50,1030,1403,1037,-183
2025-10-11 16:23:55.983,-39,-40,1025,61,2014,-671
2025-10-11 16:23:56.030,-49,-56,1025,-1708,427,1220
2025-10-11 16:23:56.031,-43,-70,1026,1159,-915,1525
2025-10-11 16:23:56.132,-36,-40,1023,3540,-366,61
2025-10-11 16:23:56.132,-49,-12,1022,1831,610,427
2025-10-11 16:23:56.132,-43,-29,1027,-976,671,488
2025-10-11 16:23:56.132,-39,-44,1028,793,1098,-122
2025-10-11 16:23:56.177,-42,-33,1038,-244,-183,366
2025-10-11 16:23:56.177,-31,-33,1033,-1770,671,793
2025-10-11 16:23:56.178,-36,-39,1041,-976,2746,427
2025-10-11 16:23:56.225,-47,-28,1044,-2258,2258,-1098
2025-10-11 16:23:56.226,-53,-28,1042,-4760,1525,-122
2025-10-11 16:23:56.226,-45,-58,1055,-2990,1831,854
2025-10-11 16:23:56.274,-24,-58,1065,1037,4638,-305
2025-10-11 16:23:56.275,-14,-38,1058,-732,8911,-1281
2025-10-11 16:23:56.323,7,-59,1057,-6225,18493,-2624
2025-10-11 16:23:56.323,16,-111,1067,4394,-25131,-7507
2025-10-11 16:23:56.324,10,-72,1048,5371,-5051,-10253
2025-10-11 16:23:56.373,50,-102,1009,10681,-32012,-18371
2025-10-11 16:23:56.373,122,-164,995,-27328,-27602,24277
2025-10-11 16:23:56.421,58,-88,994,-21591,-25389,-21988
2025-10-11 16:23:56.422,-174,152,892,12451,22462,1434
2025-10-11 16:23:56.423,-636,208,946,-14587,9279,-30899
2025-10-11 16:23:56.469,-713,-124,896,-8666,27879,15793
2025-10-11 16:23:56.469,-636,-335,763,-25497,-4531,-16967
2025-10-11 16:23:56.517,-641,-130,709,-4501,-25954,2502
2025-10-11 16:23:56.518,-961,74,753,20385,-19927,4150
2025-10-11 16:23:56.567,-810,6,648,-122,-6516,-2441
2025-10-11 16:23:56.568,-738,-25,620,4577,-31296,-1831
2025-10-11 16:23:56.568,-715,7,617,3784,25268,1220
2025-10-11 16:23:56.616,-714,0,618,-2868,24719,305
2025-10-11 16:23:56.617,-754,-6,625,-9460,15625,1647
2025-10-11 16:23:56.667,-715,-17,610,-11901,6835,1892
2025-10-11 16:23:56.668,-735,-7,618,-11230,5554,-1220
2025-10-11 16:23:56.668,-740,-19,603,-11474,5310,-1953
2025-10-11 16:23:56.717,-744,-41,602,-8056,5737,-244
2025-10-11 16:23:56.718,-749,-27,618,-4760,1098,-2319
2025-10-11 16:23:56.764,-764,-16,642,-6835,-5310,-6042
2025-10-11 16:23:56.764,-721,-41,638,-8972,-5187,-5615
2025-10-11 16:23:56.764,-726,-69,652,-2258,61,1098
2025-10-11 16:23:56.810,-756,-39,667,-305,-1831,3051
2025-10-11 16:23:56.811,-747,-22,667,-915,-3479,2380
2025-10-11 16:23:56.859,-774,3,677,-4272,-6958,-610
2025-10-11 16:23:56.860,-758,-6,670,-6225,-8605,-4516
2025-10-11 16:23:56.908,-750,-26,669,-4333,-7324,-3479
2025-10-11 16:23:56.908,-743,-52,681,-2075,-3723,183
2025-10-11 16:23:56.909,-758,-37,691,671,-2929,3234
2025-10-11 16:23:56.956,-761,-17,695,244,-2929,1037
2025-10-11 16:23:56.957,-760,-1,691,-2929,-3479,-1281
2025-10-11 16:23:57.007,-752,-35,690,-671,-2075,-854
2025-10-11 16:23:57.007,-762,-22,691,366,-3417,-366
2025-10-11 16:23:57.007,-743,-23,681,-1098,-4211,-1037
2025-10-11 16:23:57.103,-752,-21,688,-1098,-3906,-1525
2025-10-11 16:23:57.103,-750,-17,690,-2319,-4333,-2929
2025-10-11 16:23:57.104,-744,-33,691,-2197,-4699,-3662
2025-10-11 16:23:57.152,-731,-48,689,1586,-3417,-61
2025-10-11 16:23:57.152,-734,-36,689,2136,-2380,671
2025-10-11 16:23:57.153,-738,-24,691,1037,-3295,-427
2025-10-11 16:23:57.200,-734,-28,698,854,-2319,-1464
2025-10-11 16:23:57.201,-736,-33,702,610,-2563,-2319
2025-10-11 16:23:57.202,-728,-42,698,61,-2624,-2746
2025-10-11 16:23:57.249,-716,-40,684,-244,-610,-2258
2025-10-11 16:23:57.250,-729,-39,686,1586,1647,-915
2025-10-11 16:23:57.251,-742,-23,691,1525,1708,-1525
2025-10-11 16:23:57.305,-747,-29,694,-793,122,-2868
2025-10-11 16:23:57.305,-758,-32,694,-2319,-3906,-2624
2025-10-11 16:23:57.348,-745,-30,690,-5187,-10253,-1342
2025-10-11 16:23:57.349,-757,-23,689,-6591,-14709,488
2025-10-11 16:23:57.350,-743,-47,688,-7446,-22766,5859
2025-10-11 16:23:57.395,-760,-63,712,-1892,32333,6164
2025-10-11 16:23:57.396,-797,-13,718,-3356,8469,9887
2025-10-11 16:23:57.444,-730,-6,648,-9582,-13931,23010
2025-10-11 16:23:57.444,-613,-32,629,-15625,-17410,-15610
2025-10-11 16:23:57.445,-600,-166,725,1647,-19241,-10117
2025-10-11 16:23:57.493,-710,-70,804,27770,24566,-28366
2025-10-11 16:23:57.493,-918,71,820,30639,-30610,23315
2025-10-11 16:23:57.541,-807,-15,710,18371,11961,-1281
2025-10-11 16:23:57.542,-272,101,506,5249,31554,-28610
2025-10-11 16:23:57.543,65,-115,811,31982,-20783,-24338
2025-10-11 16:23:57.594,-143,28,1102,29785,-7966,6103
2025-10-11 16:23:57.594,-231,204,1022,5737,-8149,-3540
2025-10-11 16:23:57.639,-200,155,980,28183,-19074,6286
2025-10-11 16:23:57.640,15,93,895,5722,9246,32043
2025-10-11 16:23:57.688,110,-129,1113,5783,-19058,24047
2025-10-11 16:23:57.688,55,-228,1137,-23864,2731,-976
2025-10-11 16:23:57.689,-17,-57,1086,-7141,4868,2441
2025-10-11 16:23:57.736,-10,68,1028,23666,9506,12329
2025-10-11 16:23:57.737,54,48,1091,-7767,11215,3662
2025-10-11 16:23:57.785,105,-312,1062,-22216,29099,9155
2025-10-11 16:23:57.786,97,-284,1068,24719,-26672,-4455
2025-10-11 16:23:57.786,81,78,1051,23193,-16296,-3234
2025-10-11 16:23:57.835,53,148,1095,-15625,-16662,4333
2025-10-11 16:23:57.852,84,-21,1089,22141,-21606,2319
2025-10-11 16:23:57.885,131,-232,1050,-23864,-16845,3295
2025-10-11 16:23:57.885,150,-294,1029,10925,-7690,61
2025-10-11 16:23:57.885,126,-74,1021,16174,-1403,-3784
2025-10-11 16:23:57.932,104,23,1033,-11901,5249,5981
2025-10-11 16:23:57.933,77,-77,1054,-21423,-183,4455
2025-10-11 16:23:57.980,92,-175,997,-9704,-671,5004
2025-10-11 16:23:57.981,91,-196,995,12939,2441,-1037
2025-10-11 16:23:57.981,66,-22,1003,13977,2319,-4699
2025-10-11 16:23:58.029,45,17,1018,-2014,-1647,305
2025-10-11 16:23:58.029,73,-99,1012,-8544,-6469,2319
2025-10-11 16:23:58.078,93,-141,997,-1403,-8972,915
2025-10-11 16:23:58.078,99,-98,988,1708,-8300,-793
2025-10-11 16:23:58.136,101,-71,1000,-854,-5615,-1037
2025-10-11 16:23:58.140,100,-101,1001,1037,-3234,1037
2025-10-11 16:23:58.140,96,-123,1016,9033,-5126,305
2025-10-11 16:23:58.179,91,-66,1005,9033,-7812,-915
2025-10-11 16:23:58.179,103,-59,1010,4577,-6469,-671
2025-10-11 16:23:58.225,113,-77,1016,2197,-3417,732
2025-10-11 16:23:58.226,109,-100,1023,4028,0,549
2025-10-11 16:23:58.227,97,-88,1023,6225,793,-915
2025-10-11 16:23:58.273,92,-71,1021,4943,-1159,-1892
2025-10-11 16:23:58.273,98,-77,1028,2075,-4333,-1281
2025-10-11 16:23:58.322,118,-91,1022,305,-5798,61
2025-10-11 16:23:58.322,131,-100,1024,1159,-793,793
2025-10-11 16:23:58.323,125,-82,1026,915,3601,183
2025-10-11 16:23:58.370,111,-83,1035,976,5126,122
2025-10-11 16:23:58.371,105,-96,1030,1831,3479,366
2025-10-11 16:23:58.438,108,-89,1019,3295,3234,1159
2025-10-11 16:23:58.438,106,-67,1019,2014,3784,1464
2025-10-11 16:23:58.471,108,-59,1015,-1037,5676,1037
2025-10-11 16:23:58.471,104,-80,1013,-488,9094,2319
2025-10-11 16:23:58.471,91,-95,1021,732,8117,2075
2025-10-11 16:23:58.517,84,-78,1012,976,5249,549
2025-10-11 16:23:58.518,70,-70,1022,610,-122,-976
2025-10-11 16:23:58.565,88,-67,1029,1831,-671,-1159
2025-10-11 16:23:58.566,103,-63,1026,1098,1464,-2136
2025-10-11 16:23:58.566,99,-83,1025,854,3234,-1525
2025-10-11 16:23:58.614,100,-86,1023,1098,2868,-1098
2025-10-11 16:23:58.615,97,-83,1023,1403,2441,-671
2025-10-11 16:23:58.663,91,-72,1021,-183,1342,-610
2025-10-11 16:23:58.663,87,-83,1024,-488,-61,-976
2025-10-11 16:23:58.664,96,-82,1009,-122,366,-854
2025-10-11 16:23:58.722,97,-79,1010,-427,2807,-183
2025-10-11 16:23:58.722,85,-80,1012,-793,3479,-793
2025-10-11 16:23:58.764,71,-79,1006,427,2929,-854
2025-10-11 16:23:58.764,79,-81,1012,1892,3234,-1037
2025-10-11 16:23:58.764,75,-73,1017,0,2441,-1647
2025-10-11 16:23:58.809,73,-91,1016,-61,1098,-793
2025-10-11 16:23:58.809,77,-74,1015,1281,1159,-793
2025-10-11 16:23:58.858,72,-67,1018,-2624,1037,-915
2025-10-11 16:23:58.858,78,-100,1014,-1953,2075,-732
2025-10-11 16:23:58.907,85,-109,1024,2929,3784,-915
2025-10-11 16:23:58.907,77,-74,1025,2075,2685,-1708
2025-10-11 16:23:58.908,70,-68,1018,-2197,244,549
2025-10-11 16:23:58.956,78,-99,1015,610,-305,610
2025-10-11 16:23:58.956,87,-81,1014,1464,1464,366
2025-10-11 16:23:59.007,83,-75,1012,244,3723,671
2025-10-11 16:23:59.007,73,-82,1018,732,5371,549
2025-10-11 16:23:59.007,62,-66,1026,1464,3906,183
2025-10-11 16:23:59.055,62,-73,1021,-549,1281,305
2025-10-11 16:23:59.055,66,-81,1014,793,793,0
2025-10-11 16:23:59.101,71,-85,1013,1525,915,-122
2025-10-11 16:23:59.102,78,-67,1016,2563,3723,366
2025-10-11 16:23:59.103,76,-55,1016,-3173,6164,-305
2025-10-11 16:23:59.151,63,-98,1024,-915,6286,-549
2025-10-11 16:23:59.152,58,-85,1028,-1464,3784,-2563
2025-10-11 16:23:59.199,61,-86,1026,-1342,3356,-1464
2025-10-11 16:23:59.199,58,-98,1037,366,2990,-2624
2025-10-11 16:23:59.247,57,-66,1018,549,3356,-2746
2025-10-11 16:23:59.248,48,-54,1018,-1220,5004,-976
2025-10-11 16:23:59.249,36,-79,1020,-3356,2685,-610
2025-10-11 16:23:59.305,45,-103,1020,122,854,-305
2025-10-11 16:23:59.306,62,-85,1025,3356,1953,-1831
2025-10-11 16:23:59.345,57,-58,1030,-671,4028,-1281
2025-10-11 16:23:59.347,46,-94,1026,-1892,3051,-488
2025-10-11 16:23:59.347,55,-94,1023,1403,3112,-976
2025-10-11 16:23:59.394,47,-83,1027,1953,2258,-1220
2025-10-11 16:23:59.394,46,-71,1030,305,488,-976
2025-10-11 16:23:59.442,50,-79,1019,-1220,671,-488
2025-10-11 16:23:59.443,51,-90,1021,2197,3417,-427
2025-10-11 16:23:59.444,41,-77,1020,1464,3051,-2441
2025-10-11 16:23:59.491,41,-91,1005,2014,3051,-732
2025-10-11 16:23:59.492,39,-106,1027,6713,2075,-1159
2025-10-11 16:23:59.540,36,-65,1026,4760,-976,-3051
2025-10-11 16:23:59.540,38,-41,1020,-1586,-1098,-1525
2025-10-11 16:23:59.541,45,-80,1014,-3356,305,-915
2025-10-11 16:23:59.590,48,-96,1015,-1037,2807,-2685
2025-10-11 16:23:59.590,36,-89,1019,2624,2441,-2746
2025-10-11 16:23:59.639,29,-70,1023,2868,61,-2868
2025-10-11 16:23:59.639,35,-56,1018,-122,-1403,-2990
2025-10-11 16:23:59.687,38,-75,1016,-366,-854,-1708
2025-10-11 16:23:59.688,44,-86,1021,732,793,-1220
2025-10-11 16:23:59.689,45,-83,1022,1220,1037,-1037
2025-10-11 16:23:59.736,45,-77,1028,-854,244,-1098
2025-10-11 16:23:59.736,38,-90,1030,1586,427,-854
2025-10-11 16:23:59.833,40,-65,1026,2258,427,-1342
2025-10-11 16:23:59.833,42,-52,1019,-1525,671,-488
2025-10-11 16:23:59.834,47,-81,1026,-2136,2502,61
2025-10-11 16:23:59.835,41,-84,1028,-366,2136,-976
2025-10-11 16:23:59.891,38,-74,1015,-1464,1647,-366
2025-10-11 16:23:59.891,37,-80,1016,-732,1647,427
2025-10-11 16:23:59.891,30,-76,1017,-1770,976,-305
2025-10-11 16:23:59.891,31,-88,1022,-61,854,183
2025-10-11 16:23:59.931,40,-89,1019,671,2868,-488
2025-10-11 16:23:59.932,42,-73,1013,-854,5493,1220
2025-10-11 16:24:00.076,26,-90,1015,-1831,4455,732
2025-10-11 16:24:00.077,17,-87,1006,-793,1647,0
2025-10-11 16:24:00.078,8,-90,1010,549,-2502,-183
2025-10-11 16:24:00.078,22,-87,1011,3295,-4089,-1281
2025-10-11 16:24:00.125,39,-57,1013,3479,-1159,-915
2025-10-11 16:24:00.126,35,-49,1022,-610,1525,-427
2025-10-11 16:24:00.128,27,-78,1021,-4394,1708,-244
2025-10-11 16:24:00.129,21,-109,1017,-1647,183,244
2025-10-11 16:24:00.174,20,-102,1015,2014,-4028,-854
2025-10-11 16:24:00.175,38,-66,1016,1525,-2563,-610
2025-10-11 16:24:00.176,32,-66,1028,0,-427,-732
2025-10-11 16:24:00.176,33,-71,1030,-1770,122,-854
2025-10-11 16:24:00.223,39,-96,1026,61,-305,-427
2025-10-11 16:24:00.225,38,-87,1020,915,-854,-244
2025-10-11 16:24:00.225,39,-62,1025,-1037,-793,-61
2025-10-11 16:24:00.271,38,-58,1023,-4211,244,0
2025-10-11 16:24:00.272,33,-93,1021,-2929,488,-61
2025-10-11 16:24:00.320,34,-104,1017,2136,305,-1403
2025-10-11 16:24:00.321,30,-67,1016,1647,-1098,-2746
2025-10-11 16:24:00.321,29,-49,1019,-2319,-1953,-793
2025-10-11 16:24:00.369,43,-82,1023,-3173,-1220,-366
2025-10-11 16:24:00.370,41,-99,1025,-488,-854,-1647
2025-10-11 16:24:00.441,37,-92,1021,976,-549,-1220
2025-10-11 16:24:00.441,35,-83,1026,915,-610,-732
2025-10-11 16:24:00.469,36,-77,1027,-244,-732,-1342
2025-10-11 16:24:00.469,32,-85,1024,671,-488,-1281
2025-10-11 16:24:00.470,29,-88,1024,0,-1220,-1831
2025-10-11 16:24:00.516,31,-92,1030,0,-1770,-793
2025-10-11 16:24:00.516,41,-90,1031,-915,-366,-488
2025-10-11 16:24:00.564,45,-101,1028,-854,1464,244
2025-10-11 16:24:00.565,35,-109,1028,488,1220,-122
2025-10-11 16:24:00.565,31,-93,1026,1831,671,-610
2025-10-11 16:24:00.613,28,-78,1025,1037,-183,-427
2025-10-11 16:24:00.613,31,-77,1027,-1281,-1037,244
2025-10-11 16:24:00.662,43,-100,1017,-1342,-244,915
2025-10-11 16:24:00.663,37,-105,1024,2380,1098,61
2025-10-11 16:24:00.664,33,-71,1024,1525,793,-732
2025-10-11 16:24:00.729,27,-74,1018,-915,-183,122
2025-10-11 16:24:00.729,33,-91,1017,-1220,-610,366
2025-10-11 16:24:00.808,45,-91,1016,122,793,488
2025-10-11 16:24:00.809,40,-95,1025,1342,2136,305
2025-10-11 16:24:00.810,34,-88,1034,1586,2197,244
2025-10-11 16:24:00.856,47,-80,1041,732,3112,0
2025-10-11 16:24:00.858,52,-81,1043,-915,5737,1037
2025-10-11 16:24:00.858,52,-83,1041,-4150,7934,1281
2025-10-11 16:24:00.858,59,-97,1033,-5065,12145,2014
2025-10-11 16:24:00.905,76,-140,1028,1953,25329,3051
2025-10-11 16:24:00.906,57,-112,1046,9277,-27084,-793
2025-10-11 16:24:00.907,40,-46,1046,-3723,-5234,5554
2025-10-11 16:24:00.955,147,-29,1000,-14587,-23345,18066
2025-10-11 16:24:00.955,163,-140,1018,-16723,-15151,21606
2025-10-11 16:24:01.016,-14,-297,1109,-2502,27757,-2990
2025-10-11 16:24:01.016,-239,-220,995,14709,-30882,-19470
2025-10-11 16:24:01.016,-442,-173,957,21423,30076,-10620
2025-10-11 16:24:01.060,-394,-100,942,25817,28184,-6469
2025-10-11 16:24:01.061,-562,-102,955,-28427,13475,-10925
2025-10-11 16:24:01.102,-739,7,854,26184,-12710,-20812
2025-10-11 16:24:01.102,-727,0,730,12634,24567,-29785
2025-10-11 16:24:01.102,-755,-103,698,24108,32059,-10925
2025-10-11 16:24:01.149,-752,-46,622,31005,7767,6835
2025-10-11 16:24:01.150,-684,-24,622,-28549,-1633,13854
2025-10-11 16:24:01.198,-758,68,637,-32333,-13901,5432
2025-10-11 16:24:01.198,-776,111,629,13671,31005,-8056
2025-10-11 16:24:01.247,-750,89,610,-5615,11718,-19104
2025-10-11 16:24:01.247,-662,-29,592,-2929,15686,-15319
2025-10-11 16:24:01.248,-681,-70,612,12695,24902,-61
2025-10-11 16:24:01.301,-733,-30,635,17089,23986,8117
2025-10-11 16:24:01.301,-763,48,639,6591,13610,3662
2025-10-11 16:24:01.344,-770,64,628,-11779,1770,-14892
2025-10-11 16:24:01.346,-739,-22,628,-6958,3051,-13061
2025-10-11 16:24:01.347,-754,-63,635,2624,6042,-5310
2025-10-11 16:24:01.393,-771,-30,659,1281,1647,-610
2025-10-11 16:24:01.393,-770,-8,659,-2807,-2136,-183
2025-10-11 16:24:01.441,-771,3,663,-6286,-1098,-5126
2025-10-11 16:24:01.442,-791,-10,663,-5737,671,-8605
2025-10-11 16:24:01.443,-791,-38,656,-3845,-1831,-5737
2025-10-11 16:24:01.490,-777,-47,655,-2563,-3906,-2014
2025-10-11 16:24:01.491,-779,-43,661,0,-5004,-122
2025-10-11 16:24:01.539,-769,-26,664,1220,-2746,-1647
2025-10-11 16:24:01.540,-781,-16,675,-1159,-3784,-4150
2025-10-11 16:24:01.596,-778,-38,678,-4333,-5432,-4455
2025-10-11 16:24:01.596,-764,-46,674,-3601,-5798,-915
2025-10-11 16:24:01.596,-760,-44,670,-2441,-3112,0
2025-10-11 16:24:01.637,-763,-34,660,-1281,-1892,-183
2025-10-11 16:24:01.638,-768,-29,660,610,-2807,-305
2025-10-11 16:24:01.685,-774,-23,668,427,-4882,-2258
2025-10-11 16:24:01.686,-752,-30,664,-1831,-5493,-4089
2025-10-11 16:24:01.686,-750,-48,667,-427,-2929,-2075
2025-10-11 16:24:01.734,-754,-44,668,122,-5126,-1464
2025-10-11 16:24:01.735,-744,-40,669,-244,-7446,-2075
2025-10-11 16:24:01.783,-743,-41,667,-244,-7263,-793
2025-10-11 16:24:01.784,-733,-39,676,-3479,-4150,-793
2025-10-11 16:24:01.785,-739,-48,683,-4699,-2136,-1342
2025-10-11 16:24:01.887,-738,-68,677,-671,-1770,549
2025-10-11 16:24:01.887,-734,-52,672,488,-366,1403
2025-10-11 16:24:01.887,-739,-39,678,-1953,2380,-1159
2025-10-11 16:24:01.887,-748,-47,690,-6286,3295,-4333
2025-10-11 16:24:01.888,-758,-67,689,-3601,2441,-3540
2025-10-11 16:24:01.940,-748,-68,676,915,3173,1708
2025-10-11 16:24:01.940,-751,-37,673,-1403,4638,610
2025-10-11 16:24:01.978,-763,-47,679,-2014,4272,-1281
2025-10-11 16:24:01.978,-762,-55,669,-671,1708,-976
2025-10-11 16:24:02.026,-759,-46,670,-305,549,366
2025-10-11 16:24:02.027,-755,-46,669,-2868,671,854
2025-10-11 16:24:02.028,-777,-48,671,-3540,-5126,488
2025-10-11 16:24:02.076,-788,-33,661,-5065,-15380,3112
2025-10-11 16:24:02.077,-832,15,674,-17883,30197,13732
2025-10-11 16:24:02.124,-870,0,655,28793,-8621,-26108
2025-10-11 16:24:02.124,-883,-81,644,-28869,-19135,7156
2025-10-11 16:24:02.125,-875,-27,688,-20874,-7859,-3891
2025-10-11 16:24:02.194,-895,-116,687,-854,25023,-31845
2025-10-11 16:24:02.194,-684,-5,755,18981,-15504,8422
2025-10-11 16:24:02.223,-502,-6,858,3112,-2215,-16296
2025-10-11 16:24:02.224,-219,31,604,4440,25358,-28747
2025-10-11 16:24:02.224,126,-186,562,13122,29951,-3234
2025-10-11 16:24:02.272,371,-180,944,-12558,-22080,-3112
2025-10-11 16:24:02.273,251,90,991,-28976,26381,-27770
2025-10-11 16:24:02.368,180,282,1054,-6042,10650,-26611
2025-10-11 16:24:02.368,243,75,1034,14023,-6485,-6591
2025-10-11 16:24:02.369,333,-301,1005,732,-18737,8056
2025-10-11 16:24:02.369,288,-138,1098,15075,6042,-4516
2025-10-11 16:24:02.416,200,38,1085,7080,16479,-2563
2025-10-11 16:24:02.418,163,22,1073,-15136,17517,5737
2025-10-11 16:24:02.418,148,-57,1067,-23010,14160,5981
2025-10-11 16:24:02.475,128,-102,1068,-13793,9582,6591
2025-10-11 16:24:02.475,136,-103,1065,-4760,7873,4882
2025-10-11 16:24:02.475,146,-86,1069,1647,11474,2502
2025-10-11 16:24:02.518,138,-73,1072,3234,16357,-2014
2025-10-11 16:24:02.518,122,-45,1054,-244,20568,1403
2025-10-11 16:24:02.563,115,-80,1043,-4211,21179,1770
2025-10-11 16:24:02.564,96,-101,1038,-1647,19409,854
2025-10-11 16:24:02.564,90,-96,1026,1037,16540,1708
2025-10-11 16:24:02.612,91,-78,1013,2136,15747,854
2025-10-11 16:24:02.612,79,-64,1007,2868,17395,-793
2025-10-11 16:24:02.660,54,-58,1005,2868,16601,-2563
2025-10-11 16:24:02.661,34,-37,1010,1708,11718,-1708
2025-10-11 16:24:02.661,32,-39,1001,-4272,3173,1037
2025-10-11 16:24:02.709,55,-72,984,-3417,244,3234
2025-10-11 16:24:02.709,66,-71,990,366,4516,-976
2025-10-11 16:24:02.758,56,-60,1003,2441,7202,-2197
2025-10-11 16:24:02.760,54,-60,1009,2014,7019,-2258
2025-10-11 16:24:02.762,44,-58,1016,427,3662,-305
2025-10-11 16:24:02.808,47,-59,1018,-3479,366,2075
2025-10-11 16:24:02.808,64,-74,1023,-5187,-183,2319
2025-10-11 16:24:02.855,62,-83,1023,-4577,1770,1647
2025-10-11 16:24:02.855,55,-78,1021,-4455,3295,427
2025-10-11 16:24:02.904,48,-93,1013,305,4150,0
2025-10-11 16:24:02.904,43,-78,1013,4882,5615,671
2025-10-11 16:24:02.905,30,-53,1033,-488,1464,305
2025-10-11 16:24:02.953,51,-68,1025,-1953,793,671
2025-10-11 16:24:02.953,52,-78,1018,2014,4577,1159
2025-10-11 16:24:03.002,46,-69,1018,915,6591,854
2025-10-11 16:24:03.002,44,-78,1025,3601,8117,1403
2025-10-11 16:24:03.003,35,-65,1032,5249,6652,-1464
2025-10-11 16:24:03.053,24,-53,1024,1831,1403,-915
2025-10-11 16:24:03.053,33,-75,1015,-1159,-1831,2990
2025-10-11 16:24:03.099,53,-86,1021,1464,-244,3112
2025-10-11 16:24:03.101,46,-62,1027,6530,5554,1281
2025-10-11 16:24:03.148,24,-19,1033,915,7385,-610
2025-10-11 16:24:03.149,13,-57,1027,-2075,4699,-366
2025-10-11 16:24:03.149,16,-72,1019,-122,1647,-793
2025-10-11 16:24:03.196,21,-59,1015,1464,610,-1098
2025-10-11 16:24:03.197,29,-54,1006,-305,549,-854
2025-10-11 16:24:03.245,24,-71,1009,-610,1525,-1098
2025-10-11 16:24:03.246,19,-83,1012,1586,1586,-1770
2025-10-11 16:24:03.246,24,-63,1015,1831,915,-2868
2025-10-11 16:24:03.314,18,-51,1010,-610,-305,-2685
2025-10-11 16:24:03.314,22,-64,1012,-2197,-366,-1159
2025-10-11 16:24:03.345,26,-68,1017,-427,1220,-366
2025-10-11 16:24:03.345,27,-64,1030,-1098,2075,427
2025-10-11 16:24:03.345,21,-90,1043,-183,1770,-1220
2025-10-11 16:24:03.395,20,-76,1037,2075,549,-1708
2025-10-11 16:24:03.396,22,-58,1034,488,305,-915
2025-10-11 16:24:03.440,17,-60,1038,-1647,366,-183
2025-10-11 16:24:03.441,20,-81,1040,-2197,-122,-122
2025-10-11 16:24:03.442,26,-92,1038,1708,427,-1098
2025-10-11 16:24:03.489,22,-69,1032,2990,854,-2197
2025-10-11 16:24:03.489,19,-54,1028,610,1586,-427
2025-10-11 16:24:03.538,27,-69,1030,-2563,2319,244
2025-10-11 16:24:03.538,22,-81,1026,610,4211,854
2025-10-11 16:24:03.588,12,-61,1031,1342,4089,183
2025-10-11 16:24:03.588,13,-55,1028,-2929,2136,61
2025-10-11 16:24:03.588,18,-92,1020,-1953,1525,549
2025-10-11 16:24:03.638,19,-90,1016,1831,2624,-915
2025-10-11 16:24:03.638,3,-55,1025,2075,2563,-1281
2025-10-11 16:24:03.684,-1,-31,1025,244,1831,-1586
2025-10-11 16:24:03.684,-8,-26,1025,-3234,610,-1220
2025-10-11 16:24:03.685,3,-50,1012,-6286,-244,-854
2025-10-11 16:24:03.733,29,-79,997,1586,5310,-793
2025-10-11 16:24:03.733,8,-68,1007,4882,5859,-2685
2025-10-11 16:24:03.781,-9,-48,1010,427,1159,-2014
2025-10-11 16:24:03.782,-2,-67,1010,-976,-2807,-1892
2025-10-11 16:24:03.783,10,-71,1008,1586,-2746,-2502
2025-10-11 16:24:03.830,12,-70,1023,2014,-488,-2014
2025-10-11 16:24:03.831,17,-71,1030,1342,2197,-2502
2025-10-11 16:24:03.880,17,-72,1036,1403,5187,-2075
2025-10-11 16:24:03.881,4,-72,1039,1586,5065,-2258
2025-10-11 16:24:03.881,-1,-71,1031,61,2868,-2014
2025-10-11 16:24:03.928,-4,-84,1028,1586,-366,-2136
2025-10-11 16:24:03.930,-3,-59,1013,2136,366,-1770
2025-10-11 16:24:03.977,-2,-53,1025,1281,1892,-1159
2025-10-11 16:24:03.977,0,-64,1030,610,1586,-1708
2025-10-11 16:24:04.025,3,-78,1029,1281,2197,-2014
2025-10-11 16:24:04.026,0,-80,1032,2929,1342,-2075
2025-10-11 16:24:04.026,1,-62,1026,2075,488,-2624
2025-10-11 16:24:04.074,1,-58,1017,-671,427,-1098
2025-10-11 16:24:04.074,2,-78,1023,-61,1525,1220
2025-10-11 16:24:04.123,2,-78,1028,1647,2258,-488
2025-10-11 16:24:04.123,-6,-54,1016,2441,3662,-1098
2025-10-11 16:24:04.124,-18,-49,1021,-976,2136,-1281
2025-10-11 16:24:04.176,-8,-76,1023,610,61,-1708
2025-10-11 16:24:04.177,-3,-83,1018,2502,-1220,-2624
2025-10-11 16:24:04.221,-7,-67,1023,3601,-1342,-1159
2025-10-11 16:24:04.221,-1,-48,1026,610,-976,0
2025-10-11 16:24:04.222,0,-53,1025,-1342,1098,61
2025-10-11 16:24:04.270,-5,-68,1026,-1098,2075,-427
2025-10-11 16:24:04.270,0,-69,1021,366,2990,-427
2025-10-11 16:24:04.319,-9,-60,1027,-305,2258,-244
2025-10-11 16:24:04.319,-7,-63,1019,-854,854,549
2025-10-11 16:24:04.320,-8,-51,1015,0,1708,-610
2025-10-11 16:24:04.367,-17,-50,1018,-1770,915,-610
2025-10-11 16:24:04.367,-12,-66,1013,671,1525,-183
2025-10-11 16:24:04.433,-15,-49,1021,854,2746,-1281
2025-10-11 16:24:04.434,-20,-51,1022,-915,1586,-976
2025-10-11 16:24:04.467,-15,-67,1018,-244,0,-1892
2025-10-11 16:24:04.467,-9,-78,1022,1098,-488,-1464
2025-10-11 16:24:04.467,-9,-81,1034,2441,-1037,-2136
2025-10-11 16:24:04.513,-10,-69,1033,2197,-1464,-2380
2025-10-11 16:24:04.514,0,-70,1024,1708,2136,-1647
2025-10-11 16:24:04.611,-12,-72,1031,1342,3051,-1586
2025-10-11 16:24:04.611,-13,-73,1029,2319,3356,-1342
2025-10-11 16:24:04.612,-14,-68,1032,1525,3906,-1586
2025-10-11 16:24:04.659,-25,-67,1029,-610,2319,-427
2025-10-11 16:24:04.660,-18,-85,1024,-1220,1037,793
2025-10-11 16:24:04.660,-20,-88,1027,2868,1159,122
2025-10-11 16:24:04.661,-26,-59,1025,2563,1220,-305
2025-10-11 16:24:04.721,-27,-63,1027,610,305,-305
2025-10-11 16:24:04.721,-22,-78,1020,1159,610,-183
2025-10-11 16:24:04.721,-17,-78,1025,4272,1464,183
2025-10-11 16:24:04.766,-15,-54,1026,3234,976,732
2025-10-11 16:24:04.766,-19,-55,1029,-122,-122,2014
2025-10-11 16:24:04.806,-12,-51,1024,-2502,-366,2380
2025-10-11 16:24:04.807,-12,-57,1021,-1953,366,1647
2025-10-11 16:24:04.808,-17,-66,1009,1892,1647,1159
2025-10-11 16:24:04.854,-25,-46,1006,2929,1159,366
2025-10-11 16:24:04.854,-24,-27,1003,-915,-1281,854
2025-10-11 16:24:04.903,-17,-32,993,-3417,-2929,976
2025-10-11 16:24:04.903,-17,-33,986,-5920,-4394,610
2025-10-11 16:24:04.904,-24,-38,981,-10253,-8911,305
2025-10-11 16:24:04.951,-21,-37,983,-14953,-13244,-61
2025-10-11 16:24:04.952,3,-94,987,-9643,-13916,61
2025-10-11 16:24:05.009,18,-88,992,3112,-7568,-854
2025-10-11 16:24:05.009,-6,-20,1021,427,-5065,-1953
2025-10-11 16:24:05.009,-2,-33,1034,-9826,-7080,366
2025-10-11 16:24:05.053,3,-110,1039,-5737,-7507,793
2025-10-11 16:24:05.053,-2,-111,1045,1831,-9094,-1831
2025-10-11 16:24:05.098,0,-69,1049,2502,-9948,-2075
2025-10-11 16:24:05.098,10,-67,1064,244,-9826,-2441
2025-10-11 16:24:05.195,17,-81,1071,-2624,-5432,-1403
2025-10-11 16:24:05.196,35,-111,1077,-5065,-3662,-915
2025-10-11 16:24:05.197,31,-112,1076,-4028,-244,122
2025-10-11 16:24:05.197,20,-87,1081,-7324,-366,1770
2025-10-11 16:24:05.244,17,-95,1086,-15380,-4516,6286
2025-10-11 16:24:05.245,20,-117,1092,-20324,-9399,9399
2025-10-11 16:24:05.245,35,-113,1090,-27221,-12817,8850
2025-10-11 16:24:05.246,67,-133,1070,-30578,-8972,6774
2025-10-11 16:24:05.296,103,-206,1030,-13671,11108,9521
2025-10-11 16:24:05.296,80,-208,1045,3173,27648,4455
2025-10-11 16:24:05.344,65,-122,1008,3784,-13290,4394
2025-10-11 16:24:05.344,103,-131,945,5615,15823,9765
2025-10-11 16:24:05.344,152,-184,867,28015,5036,21362
2025-10-11 16:24:05.390,60,-188,926,-7553,-1662,24475
2025-10-11 16:24:05.390,-98,-156,970,8621,28489,5371
2025-10-11 16:24:05.439,-228,-26,880,6790,-17027,-18066
2025-10-11 16:24:05.440,-313,70,894,-20126,-2867,30319
2025-10-11 16:24:05.441,-458,119,894,14770,5373,19943
2025-10-11 16:24:05.488,-814,14,969,-549,28794,24704
2025-10-11 16:24:05.489,-801,-132,823,-1098,27802,-27587
2025-10-11 16:24:05.536,-772,-167,701,22033,-24200,-6286
2025-10-11 16:24:05.537,-751,-4,707,25146,24185,-976
2025-10-11 16:24:05.587,-752,31,699,17456,18143,-7568
2025-10-11 16:24:05.587,-827,35,697,11535,7095,-14648
2025-10-11 16:24:05.587,-814,21,674,3417,-13168,-15747
2025-10-11 16:24:05.636,-776,-27,615,-2197,-27023,-17700
2025-10-11 16:24:05.636,-761,-37,594,-1647,-29282,-13122
2025-10-11 16:24:05.683,-775,-30,585,-549,-31296,-5249
2025-10-11 16:24:05.683,-788,-20,588,-1892,29602,-6286
2025-10-11 16:24:05.684,-798,2,593,-9643,19714,-10192
2025-10-11 16:24:05.731,-764,-36,582,-8544,15197,-5920
2025-10-11 16:24:05.732,-782,-46,562,-5249,13977,-1647
2025-10-11 16:24:05.781,-766,-48,561,-6652,12268,61
2025-10-11 16:24:05.781,-783,-20,569,-6591,9704,-1770
2025-10-11 16:24:05.782,-787,-16,578,-10009,8422,-5065
2025-10-11 16:24:05.829,-798,-53,577,-6774,6164,-3967
2025-10-11 16:24:05.829,-792,-42,556,-5065,2563,-3479
2025-10-11 16:24:05.883,-798,-31,551,-5249,2563,-2990
2025-10-11 16:24:05.883,-811,-38,564,-2502,-305,-1770
2025-10-11 16:24:05.928,-816,-40,576,-488,-5004,-3356
2025-10-11 16:24:05.928,-799,-44,580,-4699,-6042,-3662
2025-10-11 16:24:05.928,-807,-72,593,-732,-4272,-1220
2025-10-11 16:24:05.975,-820,-54,601,305,-5310,-1708
2025-10-11 16:24:05.976,-819,-48,604,-61,-7141,-2136
2025-10-11 16:24:06.024,-821,-49,607,-915,-6713,-2990
2025-10-11 16:24:06.025,-827,-45,617,-4394,-7385,-5126
2025-10-11 16:24:06.025,-814,-68,616,-4150,-7568,-5737
2025-10-11 16:24:06.073,-812,-77,624,-1342,-6896,-4028
2025-10-11 16:24:06.074,-808,-78,624,-549,-8544,-2441
2025-10-11 16:24:06.138,-795,-75,615,1403,-6774,-1037
2025-10-11 16:24:06.138,-800,-66,616,1647,-2868,-183
2025-10-11 16:24:06.138,-813,-62,616,1220,-4821,-1464
2025-10-11 16:24:06.177,-799,-69,623,2563,-5310,-1708
2025-10-11 16:24:06.177,-783,-71,635,3234,-2014,-488
2025-10-11 16:24:06.219,-790,-74,641,976,-976,-610
2025-10-11 16:24:06.220,-777,-74,623,1403,488,-915
2025-10-11 16:24:06.268,-794,-69,614,1892,976,-488
2025-10-11 16:24:06.269,-801,-68,612,2136,-1586,-610
2025-10-11 16:24:06.270,-792,-61,614,2258,-3723,-610
2025-10-11 16:24:06.316,-769,-64,618,610,-1037,-1647
2025-10-11 16:24:06.317,-786,-71,621,549,1586,-732
2025-10-11 16:24:06.365,-799,-73,605,854,-1281,-183
2025-10-11 16:24:06.366,-794,-67,603,1647,-2685,244
2025-10-11 16:24:06.366,-802,-54,615,671,-3540,-610
2025-10-11 16:24:06.418,-803,-62,626,-1037,-4821,-2502
2025-10-11 16:24:06.418,-805,-70,629,-5676,-9155,-4089
2025-10-11 16:24:06.463,-789,-89,619,-10375,-12451,-3601
2025-10-11 16:24:06.464,-808,-71,627,-15014,-14343,-5310
2025-10-11 16:24:06.465,-817,-59,625,-22155,-19836,-7019
2025-10-11 16:24:06.512,-843,-35,616,-31799,-30578,-7202
2025-10-11 16:24:06.512,-876,-13,608,8530,-5569,4882
2025-10-11 16:24:06.560,-843,-103,621,10361,26641,14343
2025-10-11 16:24:06.561,-815,-181,663,-21179,-702,20202
2025-10-11 16:24:06.562,-755,-165,695,3601,-25910,14770
2025-10-11 16:24:06.609,-724,-102,692,15075,25527,3295
2025-10-11 16:24:06.610,-796,-107,705,23254,19668,-11169
2025-10-11 16:24:06.658,-598,-51,747,5737,7400,-22583
2025-10-11 16:24:06.659,-391,-26,856,-5310,-8958,-20446
2025-10-11 16:24:06.716,-319,-123,784,27939,-26475,27573
2025-10-11 16:24:06.716,-227,-131,796,28488,-17625,21225
2025-10-11 16:24:06.716,-101,-135,859,-5310,15395,-20935
2025-10-11 16:24:06.757,-17,-229,971,4821,28457,-5737
2025-10-11 16:24:06.757,71,-296,1024,10253,-26642,-1525
2025-10-11 16:24:06.804,209,-346,1059,24047,-11139,-16174
2025-10-11 16:24:06.804,273,-218,1009,-30502,27984,-24597
2025-10-11 16:24:06.805,263,-161,1011,-31906,3098,-15319
2025-10-11 16:24:06.853,221,-147,1050,25024,-28625,-4577
2025-10-11 16:24:06.853,181,-106,1084,9582,-10864,-1159
2025-10-11 16:24:06.902,155,-110,1071,-1037,-1831,1647
2025-10-11 16:24:06.902,116,-132,1058,-2624,1525,3906
2025-10-11 16:24:06.903,99,-126,1031,-427,3173,5615
2025-10-11 16:24:06.951,88,-123,1026,1464,4699,5737
2025-10-11 16:24:06.951,95,-139,1021,2441,7629,427
2025-10-11 16:24:07.003,87,-130,999,5187,13061,-976
2025-10-11 16:24:07.003,72,-143,1006,6103,15380,1281
2025-10-11 16:24:07.050,74,-157,1006,6774,12817,1281
2025-10-11 16:24:07.050,71,-147,1009,7995,10131,1831
2025-10-11 16:24:07.050,67,-138,1001,5798,7080,488
2025-10-11 16:24:07.097,68,-143,988,5493,6652,1892
2025-10-11 16:24:07.097,78,-172,988,8300,7019,3051
2025-10-11 16:24:07.146,78,-158,992,13977,6530,4028
2025-10-11 16:24:07.146,61,-108,1010,12451,6347,3112
2025-10-11 16:24:07.147,46,-77,1008,5187,3906,1037
2025-10-11 16:24:07.194,38,-73,1001,-2441,1281,2441
2025-10-11 16:24:07.195,57,-103,994,-5065,3051,4821
2025-10-11 16:24:07.243,58,-125,1016,-1892,6103,4333
2025-10-11 16:24:07.244,56,-140,1024,3662,6408,2014
2025-10-11 16:24:07.245,54,-127,1021,9582,6530,732
2025-10-11 16:24:07.299,40,-79,1011,7202,5798,-793
2025-10-11 16:24:07.299,31,-49,1023,-2563,2258,488
2025-10-11 16:24:07.349,42,-83,1018,-9948,-732,1098
2025-10-11 16:24:07.349,61,-138,1012,-4943,1708,1159
2025-10-11 16:24:07.349,63,-131,1023,1159,5859,854
2025-10-11 16:24:07.389,49,-111,1029,1525,7019,-1403
2025-10-11 16:24:07.390,32,-104,1042,427,5432,-793
2025-10-11 16:24:07.438,41,-112,1038,-122,2136,488
2025-10-11 16:24:07.438,48,-107,1028,1342,2014,2197
2025-10-11 16:24:07.487,38,-94,1040,-854,1464,2258
2025-10-11 16:24:07.487,50,-102,1048,-854,2136,1586
2025-10-11 16:24:07.488,65,-112,1035,1892,5249,-854
2025-10-11 16:24:07.535,54,-109,1025,7934,9643,-2136
2025-10-11 16:24:07.535,26,-82,1022,4394,7385,-1708
2025-10-11 16:24:07.589,27,-78,1029,61,3845,610
2025-10-11 16:24:07.589,39,-80,1020,-4394,1525,1220
2025-10-11 16:24:07.589,36,-105,1010,-4699,2197,61
2025-10-11 16:24:07.634,24,-120,996,-1525,3906,-183
2025-10-11 16:24:07.635,14,-114,994,305,4455,305
2025-10-11 16:24:07.681,6,-118,990,2075,3112,-549
2025-10-11 16:24:07.683,0,-103,982,2136,2807,-2136
2025-10-11 16:24:07.683,-3,-111,984,1037,2319,-3295
2025-10-11 16:24:07.731,0,-126,996,2502,732,-3601
2025-10-11 16:24:07.731,18,-125,1012,2868,488,-2868
2025-10-11 16:24:07.779,25,-135,1025,5493,244,-2929
2025-10-11 16:24:07.779,19,-111,1040,7751,-488,-2258
2025-10-11 16:24:07.828,28,-96,1052,5920,-2746,-3356
2025-10-11 16:24:07.828,36,-85,1056,4455,-3479,-3906
2025-10-11 16:24:07.829,35,-92,1054,2929,-1647,-2807
2025-10-11 16:24:07.885,35,-96,1065,3845,1831,-2319
2025-10-11 16:24:07.885,29,-86,1072,4516,3173,-2746
2025-10-11 16:24:07.926,24,-72,1058,1892,3295,-2319
2025-10-11 16:24:07.928,21,-89,1056,-671,1525,-2563
2025-10-11 16:24:07.929,39,-88,1033,-1831,1831,-1525
2025-10-11 16:24:07.974,29,-115,1033,854,4455,-1159
2025-10-11 16:24:07.974,17,-112,1039,3845,6164,-1708
2025-10-11 16:24:08.023,11,-77,1022,3417,7568,-2807
2025-10-11 16:24:08.023,3,-75,998,-61,9216,-2868
2025-10-11 16:24:08.024,-16,-100,1004,610,7019,-2014
2025-10-11 16:24:08.072,-13,-91,1003,732,1831,-1403
2025-10-11 16:24:08.072,-1,-81,1000,-122,-1525,-1831
2025-10-11 16:24:08.146,10,-94,988,-1342,-427,-2014
2025-10-11 16:24:08.146,3,-120,1003,4638,1525,61
2025-10-11 16:24:08.146,-10,-103,1037,9155,-244,-793
2025-10-11 16:24:08.171,1,-55,1033,9765,-305,-1098
2025-10-11 16:24:08.171,-2,-42,1017,6042,1892,-1770
2025-10-11 16:24:08.219,-20,-54,1019,2319,1831,-2075
2025-10-11 16:24:08.219,-20,-82,1016,2136,-122,-2380
2025-10-11 16:24:08.267,-17,-84,1013,4028,-2319,-2563
2025-10-11 16:24:08.268,-23,-67,992,1647,-1464,-3479
2025-10-11 16:24:08.268,-23,-78,985,-976,-244,-3784
2025-10-11 16:24:08.315,-8,-113,981,-366,61,-4455
2025-10-11 16:24:08.316,-1,-133,987,2258,-2258,-3356
2025-10-11 16:24:08.364,12,-139,997,3967,-4516,-1037
2025-10-11 16:24:08.365,25,-128,1006,4516,-4028,915
2025-10-11 16:24:08.365,22,-117,1020,5615,-2807,2014
2025-10-11 16:24:08.425,20,-85,1013,4150,0,3479
2025-10-11 16:24:08.426,8,-82,1021,305,1220,4638
2025-10-11 16:24:08.465,-2,-100,1028,1159,-671,4882
2025-10-11 16:24:08.465,11,-100,1019,3662,-2441,5187
2025-10-11 16:24:08.465,16,-76,1025,4760,-2868,4638
2025-10-11 16:24:08.510,13,-53,1030,3601,-2990,3784
2025-10-11 16:24:08.511,15,-46,1031,2624,-183,2685
2025-10-11 16:24:08.559,-9,-57,1018,5432,1281,2014
2025-10-11 16:24:08.560,-32,-46,1017,7080,244,671
2025-10-11 16:24:08.608,-14,-18,1031,6103,-2563,61
2025-10-11 16:24:08.608,0,-16,1040,4943,-3295,-1281
2025-10-11 16:24:08.609,34,-35,1052,4699,-1892,-3295
2025-10-11 16:24:08.656,34,-50,1049,6347,61,-2807
2025-10-11 16:24:08.657,39,-41,1035,7263,2929,1342
2025-10-11 16:24:08.711,59,-10,1036,9216,6652,4760
2025-10-11 16:24:08.711,51,29,1037,8056,9155,5432
2025-10-11 16:24:08.711,18,32,1053,5920,4333,2807
2025-10-11 16:24:08.761,0,41,1091,4699,-1281,2075
2025-10-11 16:24:08.762,2,39,1099,3967,-3356,-976
2025-10-11 16:24:08.803,12,29,1082,1037,-427,-5371
2025-10-11 16:24:08.805,17,-10,1060,-366,5187,-7446
2025-10-11 16:24:08.805,-1,-40,1033,244,7568,-5859
2025-10-11 16:24:08.851,-11,-50,1015,-1037,7141,-4516
2025-10-11 16:24:08.853,-12,-55,995,-3356,4699,-3417
2025-10-11 16:24:08.900,-16,-61,975,-4699,4699,-2319
2025-10-11 16:24:08.901,-19,-81,974,-5126,5493,-2990
2025-10-11 16:24:08.901,-22,-86,976,-2563,1342,-2380
2025-10-11 16:24:08.949,-15,-100,996,1281,-1586,-610
2025-10-11 16:24:08.949,-3,-64,1015,1159,-2136,-671
2025-10-11 16:24:09.005,7,-60,1023,0,1220,-61
2025-10-11 16:24:09.005,-5,-76,1033,183,3051,427
2025-10-11 16:24:09.053,-12,-79,1027,1037,3173,793
2025-10-11 16:24:09.053,-19,-72,1018,3295,2380,1159
2025-10-11 16:24:09.053,-18,-48,1010,1098,1037,1037
2025-10-11 16:24:09.095,-20,-58,1006,-1953,-244,2258
2025-10-11 16:24:09.096,-27,-81,1011,-1647,-366,2685
2025-10-11 16:24:09.144,-27,-64,1014,610,-122,2258
2025-10-11 16:24:09.145,-21,-52,1015,3051,1037,1220
2025-10-11 16:24:09.145,-24,-31,1012,2380,1098,183
2025-10-11 16:24:09.193,-22,-33,1024,1953,122,1281
2025-10-11 16:24:09.194,-19,-26,1024,-366,-1159,854
2025-10-11 16:24:09.241,-17,-30,1027,-854,-1281,976
2025-10-11 16:24:09.242,-7,-36,1026,1403,-793,-183
2025-10-11 16:24:09.243,-8,-22,1020,0,-1037,-1647
2025-10-11 16:24:09.296,-14,-45,1018,1098,-1220,-1342
2025-10-11 16:24:09.296,-17,-38,1020,1708,-854,-1647
2025-10-11 16:24:09.343,-15,-35,1021,427,-671,-1098
2025-10-11 16:24:09.343,-11,-67,1026,3417,-854,-793
2025-10-11 16:24:09.388,-13,-39,1022,2990,-915,-976
2025-10-11 16:24:09.388,-16,-25,1028,183,488,-61
2025-10-11 16:24:09.389,-18,-34,1035,-1403,976,0
2025-10-11 16:24:09.436,-15,-38,1032,-915,366,-854
2025-10-11 16:24:09.438,-10,-47,1033,549,732,-305
2025-10-11 16:24:09.485,-4,-41,1038,1708,1953,0
2025-10-11 16:24:09.486,-6,-29,1040,1037,3051,-61
2025-10-11 16:24:09.487,0,-27,1031,-305,4760,732
2025-10-11 16:24:09.534,-1,-43,1027,-1403,6347,305
2025-10-11 16:24:09.535,-24,-33,1032,-915,5065,610
2025-10-11 16:24:09.586,-19,-34,1027,-1831,4455,610
2025-10-11 16:24:09.586,-13,-40,1014,-2014,7446,427
2025-10-11 16:24:09.586,-16,-51,1029,-1831,10925,1342
2025-10-11 16:24:09.633,-15,-65,1034,793,14465,427
2025-10-11 16:24:09.633,-2,-47,1028,2197,21728,610
2025-10-11 16:24:09.681,-6,-65,1030,3234,32348,1708
2025-10-11 16:24:09.682,-27,-65,1043,5065,-23300,2197
2025-10-11 16:24:09.682,-43,-30,1043,4211,-12009,4943
2025-10-11 16:24:09.730,-58,-9,1040,-6896,5203,7812
2025-10-11 16:24:09.731,-3,-65,994,-1464,-25543,10070
2025-10-11 16:24:09.778,-44,-94,1017,-1403,11689,-488
2025-10-11 16:24:09.779,-157,-49,998,5249,-25100,-8544
2025-10-11 16:24:09.827,-270,-38,957,4760,-13991,-13854
2025-10-11 16:24:09.827,-439,-73,972,-10009,-25893,-24658
2025-10-11 16:24:09.828,-480,-28,903,-7873,30182,-23925
2025-10-11 16:24:09.878,-511,-102,856,6469,22858,-23376
2025-10-11 16:24:09.878,-566,-80,825,29357,19013,-22888
2025-10-11 16:24:09.928,-754,13,827,30639,-4364,-19470
2025-10-11 16:24:09.928,-798,26,728,11291,14542,-19226
2025-10-11 16:24:09.928,-695,-12,722,10742,-6943,-16662
2025-10-11 16:24:09.973,-674,-31,717,17395,-12985,-12329
2025-10-11 16:24:09.974,-705,-2,731,15747,-18234,-7690
2025-10-11 16:24:10.022,-743,-12,735,5432,-30869,-7995
2025-10-11 16:24:10.022,-740,3,734,-3967,11596,-8483
2025-10-11 16:24:10.023,-692,-23,699,-8239,1220,-5310
2025-10-11 16:24:10.070,-654,-51,703,-7446,4882,-1281
2025-10-11 16:24:10.071,-656,-79,711,-732,13793,793
2025-10-11 16:24:10.119,-716,-43,715,1159,13793,122
2025-10-11 16:24:10.120,-732,-22,713,-6774,-4089,-2746
2025-10-11 16:24:10.170,-695,-26,687,-12451,-10253,-4638
2025-10-11 16:24:10.170,-671,-67,694,-7141,-6958,-3356
2025-10-11 16:24:10.170,-695,-53,715,-3540,-5187,-1953
2025-10-11 16:24:10.218,-714,-47,722,-7324,-9399,-3417
2025-10-11 16:24:10.218,-698,-48,722,-11596,-14526,-4638
2025-10-11 16:24:10.265,-691,-56,727,-12329,-18554,-5310
2025-10-11 16:24:10.266,-674,-85,724,-8483,-16967,-5615
2025-10-11 16:24:10.267,-668,-83,744,-5310,-11535,-3662
2025-10-11 16:24:10.314,-681,-89,764,-2807,-9765,-854
2025-10-11 16:24:10.315,-685,-76,763,-793,-10742,671
2025-10-11 16:24:10.364,-680,-40,756,-4394,-9521,-671
2025-10-11 16:24:10.365,-685,-59,753,-5004,-7507,-1403
2025-10-11 16:24:10.365,-679,-74,753,-122,-6774,1586
2025-10-11 16:24:10.412,-674,-72,758,5310,-5737,4211
2025-10-11 16:24:10.412,-671,-51,766,3906,-4211,2441
2025-10-11 16:24:10.466,-671,-60,771,1892,-4394,2014
2025-10-11 16:24:10.466,-666,-68,766,1220,-5615,2075
2025-10-11 16:24:10.466,-677,-55,765,-1708,-10498,3417
2025-10-11 16:24:10.510,-672,-63,754,-4577,-17333,6530
2025-10-11 16:24:10.510,-638,-69,748,-5493,-17761,11596
2025-10-11 16:24:10.558,-619,-96,763,4394,-13977,9399
2025-10-11 16:24:10.559,-632,-38,758,6896,-8300,3845
2025-10-11 16:24:10.560,-640,-33,765,732,-5249,366
2025-10-11 16:24:10.606,-637,-86,773,3967,-4333,2380
2025-10-11 16:24:10.607,-631,-90,793,13244,-5554,8178
2025-10-11 16:24:10.656,-624,-68,789,14892,-4089,12145
2025-10-11 16:24:10.656,-628,-21,795,9155,-976,9460
2025-10-11 16:24:10.721,-637,-20,791,5615,305,4272
2025-10-11 16:24:10.721,-640,-26,785,7080,-61,2380
2025-10-11 16:24:10.721,-653,-24,794,6958,-3967,2807
2025-10-11 16:24:10.761,-630,-29,794,7385,-3784,4516
2025-10-11 16:24:10.761,-630,-10,802,2990,-1342,3540
2025-10-11 16:24:10.802,-641,-8,805,-61,1159,-244
2025-10-11 16:24:10.803,-657,-11,798,-549,1525,-1708
2025-10-11 16:24:10.803,-648,-22,786,1464,549,-1098
2025-10-11 16:24:10.851,-645,-16,791,2502,-122,61
2025-10-11 16:24:10.852,-640,-21,795,1525,-488,1403
2025-10-11 16:24:10.899,-624,-28,782,1586,793,1770
2025-10-11 16:24:10.900,-642,-14,788,1098,2380,732
2025-10-11 16:24:10.901,-649,-10,777,-366,-366,-671
2025-10-11 16:24:10.948,-649,-17,769,1403,-3540,366
2025-10-11 16:24:10.949,-634,-13,772,366,-5126,1403
2025-10-11 16:24:11.001,-632,-17,775,183,-6225,2868
2025-10-11 16:24:11.001,-632,-14,774,427,-7690,4516
2025-10-11 16:24:11.047,-645,-1,773,-1586,-13000,5615
2025-10-11 16:24:11.047,-661,3,777,-2319,-23559,12207
2025-10-11 16:24:11.050,-681,-9,782,1342,24704,26794
2025-10-11 16:24:11.095,-719,-16,788,6774,-5569,-22446
2025-10-11 16:24:11.095,-731,-23,791,9338,21087,-16769
2025-10-11 16:24:11.143,-745,-42,813,-31357,31447,-25070
2025-10-11 16:24:11.144,-622,-16,891,-9689,-4502,-26474
2025-10-11 16:24:11.144,-446,-106,894,-18234,-3786,22644
2025-10-11 16:24:11.191,-252,39,750,-26169,27449,11779
2025-10-11 16:24:11.192,24,192,664,-30685,-18190,-27573
2025-10-11 16:24:11.240,219,131,872,10559,31126,-20493
2025-10-11 16:24:11.241,213,145,1072,-6469,4165,671
2025-10-11 16:24:11.241,233,151,1005,-12451,-7355,-26367
2025-10-11 16:24:11.290,282,98,949,7080,-4654,-15869
2025-10-11 16:24:11.290,243,107,1011,14160,-17761,-2685
2025-10-11 16:24:11.339,178,257,1121,-21301,8605,7507
2025-10-11 16:24:11.340,187,118,1108,29831,11047,10375
2025-10-11 16:24:11.387,208,4,1072,-18432,24169,9094
2025-10-11 16:24:11.388,155,74,1090,-8239,-31845,4394
2025-10-11 16:24:11.388,102,143,1104,-11413,-31479,6958
2025-10-11 16:24:11.435,70,123,1112,-23864,22521,7507
2025-10-11 16:24:11.436,75,78,1076,-28747,10314,9094
2025-10-11 16:24:11.484,87,19,1033,-20874,8178,10620
2025-10-11 16:24:11.485,102,29,1025,-9277,14343,6896
2025-10-11 16:24:11.486,78,59,1032,-9216,19653,1342
2025-10-11 16:24:11.558,64,32,1022,-7812,22766,427
2025-10-11 16:24:11.558,59,-6,1013,-3967,25634,2746
2025-10-11 16:24:11.584,31,23,1021,-5065,23498,3295
2025-10-11 16:24:11.584,15,25,1016,-9521,19531,2990
2025-10-11 16:24:11.584,14,4,991,-7934,18798,1098
2025-10-11 16:24:11.631,14,21,982,-5310,20874,793
2025-10-11 16:24:11.633,13,10,990,-7629,21423,2624
2025-10-11 16:24:11.679,5,-13,1000,-6408,20690,2807
2025-10-11 16:24:11.680,8,-35,989,-4638,18432,2990
2025-10-11 16:24:11.776,7,-39,983,61,19958,3967
2025-10-11 16:24:11.778,-16,-20,1014,-366,13183,793
2025-10-11 16:24:11.778,-45,25,1031,-976,4699,1525
2025-10-11 16:24:11.779,-44,17,1030,2319,-1525,-549
2025-10-11 16:24:11.839,-32,36,1023,3051,-4821,-3723
2025-10-11 16:24:11.839,-20,50,1023,-1831,-5920,-2868
2025-10-11 16:24:11.839,-11,21,1031,-4333,-5981,-1586
2025-10-11 16:24:11.839,1,-21,1029,-1403,-4333,-4943
2025-10-11 16:24:11.879,11,12,1019,7263,1403,-7202
2025-10-11 16:24:11.879,-12,68,1025,2197,3723,-6652
2025-10-11 16:24:11.923,-15,49,1022,-6713,2014,-3601
2025-10-11 16:24:11.923,-25,-7,1021,-2929,-2441,976
2025-10-11 16:24:11.924,-22,-7,1012,-732,-5371,-1281
2025-10-11 16:24:11.972,-4,7,1012,-3479,-5615,-2380
2025-10-11 16:24:11.973,-13,-4,1025,-3234,-5371,-1464
2025-10-11 16:24:12.020,-9,-24,1018,-2136,-3906,-1281
2025-10-11 16:24:12.021,0,-22,1002,-1647,1159,976
2025-10-11 16:24:12.022,-15,-16,1003,-854,4516,3356
2025-10-11 16:24:12.069,-28,0,1001,-2868,3356,3601
2025-10-11 16:24:12.070,-29,-23,1001,-3479,-1220,3051
2025-10-11 16:24:12.138,-12,-21,979,2075,-1708,732
2025-10-11 16:24:12.138,-18,13,978,3112,488,1586
2025-10-11 16:24:12.171,-23,39,1025,732,-1159,1586
2025-10-11 16:24:12.171,-24,30,1045,-3601,-5615,1281
2025-10-11 16:24:12.171,8,-6,1045,-2014,-6774,1159
2025-10-11 16:24:12.216,22,-16,1044,2319,-3540,-2380
2025-10-11 16:24:12.217,19,10,1034,3601,3173,-3479
2025-10-11 16:24:12.264,0,34,1056,3356,8239,-610
2025-10-11 16:24:12.264,-18,19,1069,-2868,5920,671
2025-10-11 16:24:12.265,-17,-11,1060,-1037,2807,1098
2025-10-11 16:24:12.313,-5,16,1055,1281,2929,610
2025-10-11 16:24:12.314,-9,44,1048,-2929,5981,-1159
2025-10-11 16:24:12.361,-25,5,1061,-2807,5615,-1159
2025-10-11 16:24:12.362,-28,-23,1063,5310,2807,-1953
2025-10-11 16:24:12.363,-26,29,1048,6225,61,-3479
2025-10-11 16:24:12.433,-20,45,1043,976,-976,-1953
2025-10-11 16:24:12.433,-6,0,1043,122,793,-1647
2025-10-11 16:24:12.461,-2,-10,1033,3173,5126,-2502
2025-10-11 16:24:12.461,-23,-2,1035,3417,6835,-1586
2025-10-11 16:24:12.508,-38,-8,1045,3540,3356,-122
2025-10-11 16:24:12.509,-31,-4,1042,4699,-793,-1403
2025-10-11 16:24:12.511,-20,29,1030,-610,366,-1525
2025-10-11 16:24:12.557,-22,6,1020,-3173,4394,183
2025-10-11 16:24:12.557,-28,-16,1018,-2685,5493,244
2025-10-11 16:24:12.605,-43,-17,1021,976,3906,-305
2025-10-11 16:24:12.606,-50,12,1011,1281,122,-1281
2025-10-11 16:24:12.606,-47,32,1008,-1098,-1647,-2014
2025-10-11 16:24:12.655,-38,13,1013,-3601,-1647,-1647
2025-10-11 16:24:12.655,-24,-22,1019,61,-366,-2258
2025-10-11 16:24:12.714,-34,-1,1021,3295,-244,-3479
2025-10-11 16:24:12.714,-38,37,1020,-427,-1647,-3051
2025-10-11 16:24:12.714,-27,14,1020,-2075,-1464,-2563
2025-10-11 16:24:12.753,-22,0,1014,488,-183,-3356
2025-10-11 16:24:12.753,-30,10,1020,-488,-549,-1953
2025-10-11 16:24:12.800,-29,3,1020,-2014,-1586,-1403
2025-10-11 16:24:12.801,-20,-3,1017,-549,-854,-2319
2025-10-11 16:24:12.802,-23,-2,1009,2075,1464,-1464
2025-10-11 16:24:12.850,-35,8,1020,0,732,-2075
2025-10-11 16:24:12.850,-34,-11,1020,732,-854,-1525
2025-10-11 16:24:12.898,-26,-12,1025,3234,-2319,-1708
2025-10-11 16:24:12.899,-16,12,1026,1098,-2868,-1220
2025-10-11 16:24:12.900,-7,13,1026,-3967,366,610
2025-10-11 16:24:12.947,-7,-45,1014,-1647,3112,732
2025-10-11 16:24:12.947,-24,-32,1012,5249,3967,-549
2025-10-11 16:24:12.997,-46,20,1011,4882,1831,-1892
2025-10-11 16:24:12.997,-47,63,1007,-244,1220,-1342
2025-10-11 16:24:13.045,-55,59,1019,-6530,2319,-1831
2025-10-11 16:24:13.047,-64,26,1039,-9338,1892,-3295
2025-10-11 16:24:13.047,-48,-25,1054,-122,2380,-3479
2025-10-11 16:24:13.093,-30,-4,1071,5737,1586,-5737
2025-10-11 16:24:13.094,-15,33,1061,-2075,732,-4272
2025-10-11 16:24:13.142,-3,-4,1063,-10803,3845,-305
2025-10-11 16:24:13.142,-9,-65,1043,-5920,6225,366
2025-10-11 16:24:13.143,-31,-50,1038,1525,6958,-854
2025-10-11 16:24:13.190,-60,-3,1038,1525,4028,-2014
2025-10-11 16:24:13.191,-67,-1,1037,-793,976,-732
2025-10-11 16:24:13.239,-46,-8,1032,-1647,854,-1342
2025-10-11 16:24:13.240,-43,-13,1025,-3051,2807,0
2025-10-11 16:24:13.295,-44,-34,1025,-4211,2685,915
2025-10-11 16:24:13.295,-43,-43,1018,-610,3356,976
2025-10-11 16:24:13.295,-51,-22,1011,3784,4089,-610
2025-10-11 16:24:13.340,-54,-3,1004,1342,3173,-488
2025-10-11 16:24:13.340,-46,-49,987,1770,1770,-671
2025-10-11 16:24:13.386,-37,-62,982,5432,1525,-4760
2025-10-11 16:24:13.387,-41,-25,980,11230,2563,-2868
2025-10-11 16:24:13.387,-45,17,987,7141,2685,-1892
2025-10-11 16:24:13.435,-69,36,1002,-488,549,122
2025-10-11 16:24:13.436,-71,18,1006,-4394,-2197,2990
2025-10-11 16:24:13.483,-59,-13,1019,-2502,-3662,2258
2025-10-11 16:24:13.484,-51,-15,1024,2990,-2258,305
2025-10-11 16:24:13.484,-56,20,1030,3967,-1281,-610
2025-10-11 16:24:13.531,-55,34,1033,-1098,366,793
2025-10-11 16:24:13.532,-51,19,1042,-3723,1037,-549
2025-10-11 16:24:13.583,-51,-11,1051,-1464,-427,-915
2025-10-11 16:24:13.583,-43,-21,1043,915,-1403,-793
2025-10-11 16:24:13.583,-44,2,1046,1647,-1342,-305
2025-10-11 16:24:13.630,-41,21,1043,732,-244,61
2025-10-11 16:24:13.631,-41,15,1034,-183,1403,-549
2025-10-11 16:24:13.678,-52,3,1027,-122,1892,-610
2025-10-11 16:24:13.679,-60,-2,1021,366,1831,-183
2025-10-11 16:24:13.727,-64,2,1016,1708,1159,-793
2025-10-11 16:24:13.727,-76,14,1015,3417,-793,-2563
2025-10-11 16:24:13.728,-68,11,1021,2197,-1953,-4638
2025-10-11 16:24:13.775,-63,-1,1026,1647,-2807,-6530
2025-10-11 16:24:13.776,-45,-9,1018,3417,-793,-2990
2025-10-11 16:24:13.825,-40,-9,1032,4821,488,-976
2025-10-11 16:24:13.827,-30,15,1017,2258,366,-1708
2025-10-11 16:24:13.827,-36,8,1000,-1464,1037,-1281
2025-10-11 16:24:13.874,-51,-20,1003,0,-305,-1159
2025-10-11 16:24:13.874,-57,-16,1015,4943,-2868,-2197
2025-10-11 16:24:13.922,-55,22,1024,5798,-4211,-2990
2025-10-11 16:24:13.923,-49,52,1033,-2685,-1586,-3112
2025-10-11 16:24:13.924,-43,-5,1045,-4272,183,-1953
2025-10-11 16:24:13.970,-44,-41,1046,732,793,-1770
2025-10-11 16:24:13.971,-46,-7,1037,2807,488,-2624
2025-10-11 16:24:14.019,-49,12,1032,1159,305,-1098
2025-10-11 16:24:14.020,-49,-4,1029,-1342,-610,-1037
2025-10-11 16:24:14.068,-47,-15,1027,-427,-610,-61
2025-10-11 16:24:14.069,-47,-6,1030,915,427,-671
2025-10-11 16:24:14.069,-54,11,1028,1342,1159,-1281
2025-10-11 16:24:14.136,-51,-6,1030,2075,976,0
2025-10-11 16:24:14.136,-46,-7,1025,1647,1403,183
2025-10-11 16:24:14.167,-58,-7,1032,1525,427,610
2025-10-11 16:24:14.167,-48,9,1022,2502,1098,-1220
2025-10-11 16:24:14.168,-59,30,1021,610,2319,-1037
2025-10-11 16:24:14.214,-60,2,1023,-1770,732,0
2025-10-11 16:24:14.215,-46,-19,1021,1892,244,549
2025-10-11 16:24:14.263,-41,11,1013,3173,1220,-1098
2025-10-11 16:24:14.264,-55,28,1012,-488,1220,-549
2025-10-11 16:24:14.264,-53,-7,1015,-1281,61,366
2025-10-11 16:24:14.311,-44,-10,1016,1220,0,-610
2025-10-11 16:24:14.312,-48,15,1013,549,915,-244
2025-10-11 16:24:14.360,-59,6,1005,-1159,549,-549
2025-10-11 16:24:14.361,-67,-4,1010,976,-1098,-366
2025-10-11 16:24:14.362,-63,11,1016,2807,-1892,-732
2025-10-11 16:24:14.423,-60,37,1022,915,-1525,-976
2025-10-11 16:24:14.423,-46,24,1022,-2197,-305,-915
2025-10-11 16:24:14.467,-41,-8,1025,-1586,1647,-854
2025-10-11 16:24:14.468,-56,-18,1034,1159,1525,-1220
2025-10-11 16:24:14.468,-59,-4,1027,427,-549,-122
2025-10-11 16:24:14.555,-47,0,1021,-610,-1159,488
2025-10-11 16:24:14.556,-44,5,1010,-1342,1159,793
2025-10-11 16:24:14.557,-57,-6,1016,-549,1647,854
2025-10-11 16:24:14.557,-55,0,1011,1281,1831,-61
2025-10-11 16:24:14.604,-60,8,1006,1708,2624,-427
2025-10-11 16:24:14.604,-68,14,1013,-61,61,427
2025-10-11 16:24:14.605,-58,17,1016,-2319,-2258,488
2025-10-11 16:24:14.653,-49,3,1012,-3662,-1403,610
2025-10-11 16:24:14.654,-46,-31,1020,610,366,1220
2025-10-11 16:24:14.712,-56,-6,1026,3356,488,366
2025-10-11 16:24:14.712,-53,28,1019,0,1037,1708
2025-10-11 16:24:14.712,-40,22,1020,-4272,9155,5859
2025-10-11 16:24:14.754,-63,1,1050,-8544,9277,4577
2025-10-11 16:24:14.754,-55,-19,1051,-5249,8605,4333
2025-10-11 16:24:14.799,-75,-17,1043,-61,8605,2258
2025-10-11 16:24:14.800,-99,26,1052,-2441,5187,1647
2025-10-11 16:24:14.848,-75,35,1050,-6347,4272,3173
2025-10-11 16:24:14.849,-52,1,1049,-8178,10131,2807
2025-10-11 16:24:14.849,-46,-39,1058,-122,20446,4760
2025-10-11 16:24:14.897,21,-29,993,9338,-18173,11779
2025-10-11 16:24:14.898,73,-14,1017,18554,-28411,20507
2025-10-11 16:24:14.945,25,-40,1070,-25253,-23879,4516
2025-10-11 16:24:14.946,-111,-164,997,6607,6211,-7934
2025-10-11 16:24:14.947,-258,144,870,-8408,23301,-13305
2025-10-11 16:24:15.000,-310,228,877,17578,-22643,31845
2025-10-11 16:24:15.000,-569,160,904,-4272,-8482,1022
2025-10-11 16:24:15.047,-949,-13,889,8728,22386,-5630
2025-10-11 16:24:15.047,-767,-89,718,28320,-20583,17502
2025-10-11 16:24:15.047,-823,-48,636,-27390,3754,-14038
2025-10-11 16:24:15.092,-799,63,670,-31113,-29022,915
2025-10-11 16:24:15.093,-832,140,659,23803,5569,-1159
2025-10-11 16:24:15.141,-807,167,635,1525,-21591,-16662
2025-10-11 16:24:15.141,-779,64,610,-2014,30273,-15747
2025-10-11 16:24:15.142,-738,38,584,-1892,27709,-7385
2025-10-11 16:24:15.189,-752,40,584,-3112,29724,915
2025-10-11 16:24:15.190,-803,68,604,-6469,25207,2380
2025-10-11 16:24:15.238,-812,95,603,-10559,13366,-2685
2025-10-11 16:24:15.239,-785,76,577,-14038,10131,-8911
2025-10-11 16:24:15.290,-763,28,558,-6835,15991,-3967
2025-10-11 16:24:15.291,-802,49,569,-2624,17272,549
2025-10-11 16:24:15.291,-820,65,582,-3784,10070,305
2025-10-11 16:24:15.336,-825,83,571,-10314,1708,-4638
2025-10-11 16:24:15.336,-801,57,572,-9765,6103,-6713
2025-10-11 16:24:15.384,-815,49,572,-6713,5981,-5798
2025-10-11 16:24:15.385,-827,37,567,-1831,244,-2319
2025-10-11 16:24:15.386,-811,54,574,-427,-2319,-183
2025-10-11 16:24:15.433,-829,75,595,-2136,-2380,-3967
2025-10-11 16:24:15.434,-827,62,602,-5859,-1342,-9521
2025-10-11 16:24:15.482,-830,39,602,-7385,-2136,-10009
2025-10-11 16:24:15.482,-815,5,592,-2868,-1586,-4699
2025-10-11 16:24:15.484,-814,30,594,-2868,305,-549
2025-10-11 16:24:15.530,-830,31,599,-3723,-1342,-2929
2025-10-11 16:24:15.531,-825,37,583,-4211,-4882,-5126
2025-10-11 16:24:15.590,-820,22,586,-3356,-4943,-4821
2025-10-11 16:24:15.590,-810,15,595,-2502,-2929,-2319
2025-10-11 16:24:15.590,-810,14,604,-1342,-427,-732
2025-10-11 16:24:15.629,-819,18,601,-793,-671,-183
2025-10-11 16:24:15.629,-805,16,586,-1892,-1647,-549
2025-10-11 16:24:15.677,-806,27,584,-3356,-1586,-2075
2025-10-11 16:24:15.677,-803,20,584,-4211,-2685,-4028
2025-10-11 16:24:15.726,-796,7,581,-4455,-3601,-4638
2025-10-11 16:24:15.727,-794,0,579,-1281,-3417,-1708
2025-10-11 16:24:15.727,-789,5,583,244,-2075,-488
2025-10-11 16:24:15.774,-804,19,582,-671,-2929,-1525
2025-10-11 16:24:15.775,-810,12,590,-1342,-4699,-4089
2025-10-11 16:24:15.823,-798,-2,602,-549,-4455,-3845
2025-10-11 16:24:15.824,-800,-9,616,549,-3417,-2258
2025-10-11 16:24:15.825,-800,-4,623,-427,-1342,-1831
2025-10-11 16:24:15.879,-809,0,618,-976,-732,-1220
2025-10-11 16:24:15.879,-817,1,607,-610,-2197,-1586
2025-10-11 16:24:15.922,-819,5,605,-1586,-4943,-2197
2025-10-11 16:24:15.923,-796,-9,607,2502,-1342,61
2025-10-11 16:24:15.924,-825,14,617,2319,-1159,305
2025-10-11 16:24:15.970,-820,13,609,1037,-2624,-305
2025-10-11 16:24:15.970,-844,17,610,1098,-9155,-915
2025-10-11 16:24:16.018,-865,16,621,671,-23803,-183
2025-10-11 16:24:16.018,-912,31,645,4333,12924,1831
2025-10-11 16:24:16.066,-945,86,609,-1831,32257,8422
2025-10-11 16:24:16.067,-947,96,652,-18066,-18158,28747
2025-10-11 16:24:16.068,-885,60,631,-29968,-5906,-18845
2025-10-11 16:24:16.137,-861,-107,613,-2502,26183,-21957
2025-10-11 16:24:16.137,-739,-180,752,-23239,-9035,-9826
2025-10-11 16:24:16.167,-327,111,737,-2197,-28871,17624
2025-10-11 16:24:16.167,-97,332,710,18798,-22630,28061
2025-10-11 16:24:16.167,-56,232,916,-11779,25649,671
2025-10-11 16:24:16.213,-64,-71,963,31845,-18342,23071
2025-10-11 16:24:16.214,-11,-272,1060,-24047,-1923,17211
2025-10-11 16:24:16.262,34,-103,1045,-11413,8331,-4699
2025-10-11 16:24:16.264,79,23,976,1586,-17410,9094
2025-10-11 16:24:16.264,70,13,1013,-1831,25253,19958
2025-10-11 16:24:16.310,19,5,1078,-15380,-14770,20324
2025-10-11 16:24:16.311,-3,-25,1083,-23559,-244,2319
2025-10-11 16:24:16.359,-38,-86,1020,-8666,5065,5004
2025-10-11 16:24:16.360,-70,-72,1026,5676,4089,7995
