timestamp (AEST),ax,ay,az,gx,gy,gz
2025-10-11 16:32:33.923,-161,22,1009,2624,1220,-1220
2025-10-11 16:32:33.923,-163,27,1003,2014,1037,-1220
2025-10-11 16:32:33.923,-162,24,1007,2014,305,-732
2025-10-11 16:32:33.964,-161,31,1005,1831,732,-671
2025-10-11 16:32:33.964,-165,29,999,2258,732,-1098
2025-10-11 16:32:34.061,-172,31,1001,2075,488,-793
2025-10-11 16:32:34.066,-166,31,1000,2624,-549,-1403
2025-10-11 16:32:34.067,-161,36,1000,2197,-244,-1037
2025-10-11 16:32:34.067,-171,37,1001,1770,-793,-1281
2025-10-11 16:32:34.109,-168,31,1001,1281,-854,-1647
2025-10-11 16:32:34.109,-173,30,997,1892,-1098,-1403
2025-10-11 16:32:34.111,-172,35,998,1831,-1098,-1098
2025-10-11 16:32:34.155,-171,38,997,732,-1342,-1586
2025-10-11 16:32:34.155,-172,30,998,549,-1647,-1586
2025-10-11 16:32:34.156,-170,25,1002,1220,-2075,-1159
2025-10-11 16:32:34.204,-165,31,999,366,-1953,-1220
2025-10-11 16:32:34.205,-157,24,998,-732,-1586,-1037
2025-10-11 16:32:34.253,-151,13,1002,-244,-1586,-854
2025-10-11 16:32:34.253,-151,15,1003,1281,-2136,-244
2025-10-11 16:32:34.254,-157,28,1017,2258,-3356,549
2025-10-11 16:32:34.303,-164,37,1032,2685,-4455,-61
2025-10-11 16:32:34.303,-140,46,1041,3723,-4638,-793
2025-10-11 16:32:34.351,-140,56,1055,1586,-2807,-1037
2025-10-11 16:32:34.351,-140,46,1056,-366,-122,-1464
2025-10-11 16:32:34.353,-131,26,1033,1647,1525,-793
2025-10-11 16:32:34.399,-146,35,1019,2807,1892,-244
2025-10-11 16:32:34.400,-154,48,1010,2258,1281,-427
2025-10-11 16:32:34.448,-145,50,1004,1403,854,-915
2025-10-11 16:32:34.448,-146,49,1006,1464,305,-2197
2025-10-11 16:32:34.497,-164,52,1005,610,-427,-2319
2025-10-11 16:32:34.497,-164,49,997,-549,183,-2136
2025-10-11 16:32:34.498,-158,38,999,-1037,1647,-2502
2025-10-11 16:32:34.545,-162,34,998,-793,1831,-2563
2025-10-11 16:32:34.546,-174,43,1001,-2136,-366,-2685
2025-10-11 16:32:34.604,-145,35,1014,-4821,-549,-2929
2025-10-11 16:32:34.604,-146,33,1019,-2746,122,-2807
2025-10-11 16:32:34.604,-157,49,1018,-1770,854,-2319
2025-10-11 16:32:34.643,-153,55,1007,-2502,1892,-2258
2025-10-11 16:32:34.643,-154,44,1007,-976,1098,-4455
2025-10-11 16:32:34.691,-179,38,998,1220,-915,-5981
2025-10-11 16:32:34.692,-170,37,996,854,-2807,-6652
2025-10-11 16:32:34.693,-149,32,1002,-2075,-2319,-6713
2025-10-11 16:32:34.740,-148,11,1015,-3173,-1953,-7629
2025-10-11 16:32:34.741,-152,-13,1021,-2258,-1708,-5493
2025-10-11 16:32:34.789,-157,-8,1012,915,-854,-4272
2025-10-11 16:32:34.790,-162,0,1024,-61,-732,-3112
2025-10-11 16:32:34.791,-174,13,1017,-1159,-793,-2929
2025-10-11 16:32:34.838,-159,16,1012,-4028,854,-2990
2025-10-11 16:32:34.839,-154,-1,1011,-3051,1953,-3845
2025-10-11 16:32:34.894,-158,-10,1011,-2136,1037,-3723
2025-10-11 16:32:34.894,-165,-3,994,-1831,-244,-3173
2025-10-11 16:32:34.936,-169,1,992,-2380,-915,-2136
2025-10-11 16:32:34.936,-162,-7,999,-488,-2014,-2014
2025-10-11 16:32:34.936,-158,0,1006,1403,-3356,-1403
2025-10-11 16:32:34.984,-154,-2,1007,2441,-2807,-671
2025-10-11 16:32:34.985,-139,-4,1006,4760,-1953,793
2025-10-11 16:32:35.033,-145,5,1011,5859,-1342,3112
2025-10-11 16:32:35.033,-150,23,1012,4577,-915,3601
2025-10-11 16:32:35.034,-154,43,1010,2868,-793,3112
2025-10-11 16:32:35.081,-151,42,1004,2502,-366,2441
2025-10-11 16:32:35.082,-161,39,1005,2563,-854,1586
2025-10-11 16:32:35.130,-168,43,1003,1098,-1892,1342
2025-10-11 16:32:35.131,-164,34,1007,366,-2624,1037
2025-10-11 16:32:35.132,-157,29,1007,244,-2746,915
2025-10-11 16:32:35.228,-135,20,1002,915,-2136,427
2025-10-11 16:32:35.230,-139,15,1007,1831,-2624,305
2025-10-11 16:32:35.230,-131,5,1019,2929,-4516,427
2025-10-11 16:32:35.276,-126,21,1021,2746,-5554,1098
2025-10-11 16:32:35.277,-117,29,1022,1586,-4760,793
2025-10-11 16:32:35.278,-118,25,1029,1098,-3356,549
2025-10-11 16:32:35.278,-121,23,1031,1037,-2258,122
2025-10-11 16:32:35.325,-128,29,1036,-183,-2075,915
2025-10-11 16:32:35.326,-131,36,1017,-1403,-1586,915
2025-10-11 16:32:35.374,-129,23,1013,-2868,61,1586
2025-10-11 16:32:35.374,-141,35,1008,-2990,305,2014
2025-10-11 16:32:35.375,-141,35,1016,-1831,-610,671
2025-10-11 16:32:35.423,-152,42,1019,-2075,-1464,427
2025-10-11 16:32:35.423,-143,42,1019,-3479,-1831,-671
2025-10-11 16:32:35.480,-138,23,1028,-3356,-2258,-1586
2025-10-11 16:32:35.480,-139,19,1029,-1831,-2319,-976
2025-10-11 16:32:35.480,-122,21,1025,-1159,-183,-549
2025-10-11 16:32:35.522,-130,23,1031,-793,549,-671
2025-10-11 16:32:35.522,-130,22,1030,-1647,122,-610
2025-10-11 16:32:35.569,-127,22,1027,-1586,-610,-1037
2025-10-11 16:32:35.569,-124,23,1024,-2807,0,-1403
2025-10-11 16:32:35.618,-130,19,1031,-3601,61,-1281
2025-10-11 16:32:35.618,-131,15,1025,-3723,427,-1098
2025-10-11 16:32:35.619,-125,15,1020,-3295,1708,-671
2025-10-11 16:32:35.716,-128,15,1013,-2929,2380,-1342
2025-10-11 16:32:35.772,-136,4,1012,-1892,1647,-1770
2025-10-11 16:32:35.772,-141,12,1005,-1586,488,-915
2025-10-11 16:32:35.772,-138,17,1000,-2929,305,-1037
2025-10-11 16:32:35.772,-133,8,1002,-3234,183,-1464
2025-10-11 16:32:35.773,-137,7,1001,-3234,183,-1586
2025-10-11 16:32:35.773,-145,17,1001,-3356,0,-1525
2025-10-11 16:32:35.818,-139,15,1003,-4882,549,-1647
2025-10-11 16:32:35.818,-143,13,993,-4211,793,-2441
2025-10-11 16:32:35.818,-148,7,994,-5432,0,-2807
2025-10-11 16:32:35.910,-139,-1,995,-6469,-1098,-3051
2025-10-11 16:32:35.911,-138,-8,1003,-5615,-2319,-3112
2025-10-11 16:32:35.911,-134,0,1007,-7263,-2441,-2990
2025-10-11 16:32:35.912,-124,-21,1020,-6835,-1953,-3356
2025-10-11 16:32:35.959,-121,-30,1028,-4760,-1770,-3051
2025-10-11 16:32:35.960,-131,-14,1022,-2990,-1220,-2502
2025-10-11 16:32:35.960,-131,-39,1032,-2807,-2075,-3845
2025-10-11 16:32:36.008,-132,-50,1040,2441,-3662,-3112
2025-10-11 16:32:36.008,-117,-10,1029,4638,-2624,-2380
2025-10-11 16:32:36.009,-117,5,1025,-61,671,-2624
2025-10-11 16:32:36.057,-138,-22,1035,-2807,1220,-2868
2025-10-11 16:32:36.057,-128,-44,1032,-854,-61,-1953
2025-10-11 16:32:36.109,-116,-32,1025,1220,-427,-1220
2025-10-11 16:32:36.110,-117,-19,1028,366,-61,-1953
2025-10-11 16:32:36.155,-110,-24,1022,-1831,1586,-1525
2025-10-11 16:32:36.155,-127,-41,1022,-183,1831,-305
2025-10-11 16:32:36.157,-128,-26,1017,-610,2136,-427
2025-10-11 16:32:36.203,-138,-19,1014,-1098,1953,61
2025-10-11 16:32:36.204,-136,-14,1015,-671,1708,-61
2025-10-11 16:32:36.252,-136,-9,1021,-793,1098,-915
2025-10-11 16:32:36.252,-140,-14,1023,-854,488,-1892
2025-10-11 16:32:36.253,-128,-19,1015,-366,1220,-1831
2025-10-11 16:32:36.300,-133,-18,1010,427,1647,-1586
2025-10-11 16:32:36.301,-137,-17,1019,-1281,1342,-1220
2025-10-11 16:32:36.349,-135,-31,1016,0,61,-2319
2025-10-11 16:32:36.349,-132,-34,1013,854,122,-2319
2025-10-11 16:32:36.398,-140,-26,1005,-122,488,-1403
2025-10-11 16:32:36.398,-142,-29,1009,-1220,122,-1464
2025-10-11 16:32:36.407,-136,-35,1004,-671,244,-1342
2025-10-11 16:32:36.448,-140,-41,1007,1525,-61,-1586
2025-10-11 16:32:36.449,-150,-28,1013,1708,-976,-1098
2025-10-11 16:32:36.496,-134,-20,1010,244,0,-1159
2025-10-11 16:32:36.497,-141,-28,1010,-1159,854,-1342
2025-10-11 16:32:36.497,-141,-47,1015,-732,488,-976
2025-10-11 16:32:36.544,-141,-47,1013,1342,-793,-183
2025-10-11 16:32:36.545,-137,-34,1011,1037,-793,671
2025-10-11 16:32:36.641,-134,-33,1011,427,0,793
2025-10-11 16:32:36.671,-137,-32,1020,1037,0,793
2025-10-11 16:32:36.671,-140,-30,1024,549,-549,610
2025-10-11 16:32:36.671,-136,-28,1014,366,183,793
2025-10-11 16:32:36.698,-136,-25,1009,183,1464,1159
2025-10-11 16:32:36.699,-145,-24,1010,61,1281,1403
2025-10-11 16:32:36.699,-141,-21,1010,488,-61,549
2025-10-11 16:32:36.740,-139,-19,1007,1953,-1037,-122
2025-10-11 16:32:36.740,-138,-10,1013,2075,-1464,-305
2025-10-11 16:32:36.741,-133,-7,1018,-244,-549,-1403
2025-10-11 16:32:36.788,-130,-31,1017,366,-122,-854
2025-10-11 16:32:36.789,-135,-28,1020,1464,-549,-305
2025-10-11 16:32:36.836,-133,-16,1018,1037,-671,-244
2025-10-11 16:32:36.837,-126,-16,1014,671,183,-854
2025-10-11 16:32:36.838,-133,-23,1015,488,183,-1586
2025-10-11 16:32:36.885,-141,-29,1016,305,-976,-1281
2025-10-11 16:32:36.886,-135,-31,1015,1037,-1464,-1037
2025-10-11 16:32:36.934,-131,-27,1015,1342,-671,-488
2025-10-11 16:32:36.935,-136,-23,1018,671,183,-610
2025-10-11 16:32:36.936,-140,-27,1022,366,-15625,-732
2025-10-11 16:32:36.988,-138,-30,1013,854,122,-610
2025-10-11 16:32:36.988,-130,-28,1012,427,549,-671
2025-10-11 16:32:37.037,-137,-36,1015,-549,0,-671
2025-10-11 16:32:37.037,-135,-46,1018,610,-610,61
2025-10-11 16:32:37.037,-132,-33,1018,1403,-549,610
2025-10-11 16:32:37.080,-133,-24,1018,976,488,305
2025-10-11 16:32:37.082,-135,-29,1017,488,854,305
2025-10-11 16:32:37.129,-139,-28,1015,671,671,488
2025-10-11 16:32:37.130,-142,-25,1016,549,122,244
2025-10-11 16:32:37.178,-143,-27,1016,366,-671,793
2025-10-11 16:32:37.178,-136,-26,1018,0,-122,1403
2025-10-11 16:32:37.179,-137,-33,1024,-854,61,1708
2025-10-11 16:32:37.277,-132,-42,1021,549,244,1708
2025-10-11 16:32:37.277,-134,-27,1017,2075,244,2075
2025-10-11 16:32:37.278,-133,-6,1007,0,1037,1586
2025-10-11 16:32:37.280,-141,-20,1004,-366,793,1342
2025-10-11 16:32:37.326,-141,-20,1003,-305,61,1403
2025-10-11 16:32:37.326,-138,-19,1003,915,-732,854
2025-10-11 16:32:37.326,-137,-13,1004,1098,-1159,549
2025-10-11 16:32:37.421,-138,-11,1009,122,-854,244
2025-10-11 16:32:37.423,-134,-16,1011,915,-366,0
2025-10-11 16:32:37.423,-136,-16,1013,854,-305,-244
2025-10-11 16:32:37.423,-136,-21,1014,915,-1159,-244
2025-10-11 16:32:37.470,-133,-20,1017,976,-1525,0
2025-10-11 16:32:37.471,-132,-20,1020,610,-1281,-61
2025-10-11 16:32:37.471,-131,-22,1020,1037,-610,0
2025-10-11 16:32:37.472,-136,-17,1023,1159,-366,427
2025-10-11 16:32:37.519,-135,-10,1026,366,-549,183
2025-10-11 16:32:37.520,-130,-12,1026,122,-366,-671
2025-10-11 16:32:37.570,-137,-16,1023,244,-366,-549
2025-10-11 16:32:37.570,-134,-15,1024,122,-427,-122
2025-10-11 16:32:37.617,-130,-18,1024,122,-244,-183
2025-10-11 16:32:37.617,-135,-23,1025,1525,-366,-976
2025-10-11 16:32:37.618,-134,-16,1020,1770,-305,-976
2025-10-11 16:32:37.665,-133,-10,1022,1525,-915,-1586
2025-10-11 16:32:37.666,-129,-13,1018,427,-1220,-1831
2025-10-11 16:32:37.714,-129,-21,1016,-183,-1342,-1770
2025-10-11 16:32:37.715,-131,-27,1015,549,-1342,-1342
2025-10-11 16:32:37.715,-129,-22,1016,1159,-1037,-793
2025-10-11 16:32:37.763,-135,-14,1014,1098,-1159,-1525
2025-10-11 16:32:37.763,-130,-11,1013,-549,-1281,-1708
2025-10-11 16:32:37.811,-133,-19,1007,-244,-2136,-2380
2025-10-11 16:32:37.812,-128,-28,1004,61,-1770,-2075
2025-10-11 16:32:37.813,-129,-34,1007,793,-1403,-1647
2025-10-11 16:32:37.861,-132,-33,1006,1525,-1525,-1037
2025-10-11 16:32:37.861,-127,-26,1005,1525,-1220,-427
2025-10-11 16:32:37.910,-130,-22,1009,1708,-1220,-915
2025-10-11 16:32:37.911,-132,-19,1004,1281,-1098,-671
2025-10-11 16:32:37.912,-134,-22,1008,549,-1220,-549
2025-10-11 16:32:37.958,-128,-26,1014,671,-1708,-488
2025-10-11 16:32:37.959,-130,-17,1013,-61,-1586,-610
2025-10-11 16:32:38.006,-123,-24,1012,-183,-610,-854
2025-10-11 16:32:38.007,-128,-30,1018,671,-976,-305
2025-10-11 16:32:38.055,-127,-29,1022,732,-1892,183
2025-10-11 16:32:38.056,-119,-20,1022,1342,-1708,610
2025-10-11 16:32:38.056,-120,-9,1026,976,-427,549
2025-10-11 16:32:38.104,-123,-8,1028,-305,244,-305
2025-10-11 16:32:38.105,-123,-21,1030,-305,-183,-610
2025-10-11 16:32:38.202,-123,-27,1036,61,-1342,-610
2025-10-11 16:32:38.202,-127,-30,1045,732,-2563,-854
2025-10-11 16:32:38.203,-122,-31,1059,-305,-1953,-1281
2025-10-11 16:32:38.203,-98,-47,1039,1464,671,-305
2025-10-11 16:32:38.250,-114,-53,1030,2014,2990,1281
2025-10-11 16:32:38.251,-126,-51,1011,3540,3356,2807
2025-10-11 16:32:38.252,-137,-33,1006,6408,1525,3906
2025-10-11 16:32:38.252,-132,10,997,4455,1037,3234
2025-10-11 16:32:38.299,-131,11,999,2563,793,1403
2025-10-11 16:32:38.299,-128,5,997,610,1037,854
2025-10-11 16:32:38.348,-128,-10,999,793,854,-61
2025-10-11 16:32:38.349,-128,-13,997,2075,183,1342
2025-10-11 16:32:38.350,-121,-6,1000,2380,183,854
2025-10-11 16:32:38.397,-118,5,1000,427,915,732
2025-10-11 16:32:38.398,-129,0,1002,549,-122,366
2025-10-11 16:32:38.454,-127,0,1011,1220,-1098,244
2025-10-11 16:32:38.455,-120,5,1016,1159,-1403,-610
2025-10-11 16:32:38.494,-118,3,1012,732,-610,-1098
2025-10-11 16:32:38.494,-128,0,1018,-244,-427,-793
2025-10-11 16:32:38.497,-129,-2,1018,-915,-976,-610
2025-10-11 16:32:38.543,-124,0,1018,-488,-1342,-1098
2025-10-11 16:32:38.543,-128,1,1021,-1037,-1831,-2136
2025-10-11 16:32:38.592,-133,-4,1022,-1770,-3662,-2075
2025-10-11 16:32:38.592,-120,-9,1023,-2075,-4089,-2136
2025-10-11 16:32:38.593,-118,0,1025,-3479,-3967,-2502
2025-10-11 16:32:38.641,-120,5,1023,-7690,-3601,-2502
2025-10-11 16:32:38.642,-119,-9,1018,-13366,-3784,-2380
2025-10-11 16:32:38.689,-130,-40,1032,-14526,-5554,-2319
2025-10-11 16:32:38.689,-142,-50,1041,-8239,-10253,-2136
2025-10-11 16:32:38.739,-149,-49,1078,-3417,-16540,-1586
2025-10-11 16:32:38.739,-136,-46,1086,5004,-27648,-5737
2025-10-11 16:32:38.739,-90,12,1066,3417,28915,-5981
2025-10-11 16:32:38.787,-68,0,1067,-16967,12070,-3540
2025-10-11 16:32:38.791,-52,-23,1083,-25329,-1724,0
2025-10-11 16:32:38.836,-26,-57,1088,-27893,-12405,-3723
2025-10-11 16:32:38.837,1,-71,1071,-27343,-19730,-6408
2025-10-11 16:32:38.838,-29,-125,1030,-27893,-28519,-183
2025-10-11 16:32:38.884,43,-153,994,-22399,22796,10192
2025-10-11 16:32:38.884,97,-106,974,-31127,3631,19775
2025-10-11 16:32:38.933,95,-125,927,-27709,-12238,-27512
2025-10-11 16:32:38.933,209,-185,843,27634,21254,26245
2025-10-11 16:32:38.934,296,-115,801,21225,9353,-7690
2025-10-11 16:32:38.982,382,-136,835,-1968,19423,-29174
2025-10-11 16:32:38.982,481,-173,806,-4898,-20356,24582
2025-10-11 16:32:39.032,523,-203,794,-5142,14251,19943
2025-10-11 16:32:39.032,587,-274,803,8530,-17166,24765
2025-10-11 16:32:39.033,586,-290,811,22812,9811,-20874
2025-10-11 16:32:39.080,593,-239,811,-30456,24399,5371
2025-10-11 16:32:39.081,600,-217,804,-30761,31174,18737
2025-10-11 16:32:39.128,614,-241,791,-32226,31174,8850
2025-10-11 16:32:39.129,631,-291,784,-31311,31235,5126
2025-10-11 16:32:39.177,643,-357,772,-23559,-28381,1892
2025-10-11 16:32:39.177,665,-365,767,-6652,-12207,-793
2025-10-11 16:32:39.178,660,-287,769,-2258,-2868,-2075
2025-10-11 16:32:39.226,627,-275,770,-2258,-2563,-7324
2025-10-11 16:32:39.226,626,-289,763,-5310,-9277,3906
2025-10-11 16:32:39.274,646,-282,748,-7873,-10437,2746
2025-10-11 16:32:39.274,659,-323,748,-7019,-9704,-610
2025-10-11 16:32:39.275,665,-338,743,-2380,-3967,1892
2025-10-11 16:32:39.325,669,-332,745,2380,1647,1525
2025-10-11 16:32:39.325,652,-302,741,4394,3845,1770
2025-10-11 16:32:39.374,638,-294,737,3051,4394,1525
2025-10-11 16:32:39.375,635,-304,739,1403,2624,1647
2025-10-11 16:32:39.376,629,-293,733,2136,1220,1831
2025-10-11 16:32:39.421,628,-296,730,1586,1220,1464
2025-10-11 16:32:39.421,630,-296,735,1220,976,1892
2025-10-11 16:32:39.469,628,-287,732,-61,976,2868
2025-10-11 16:32:39.470,627,-293,731,-1831,61,1892
2025-10-11 16:32:39.518,622,-319,734,-1037,-976,0
2025-10-11 16:32:39.519,627,-314,741,1464,-1342,-244
2025-10-11 16:32:39.519,633,-298,742,1525,-732,-1098
2025-10-11 16:32:39.567,628,-303,741,732,-671,-1281
2025-10-11 16:32:39.568,631,-316,740,1525,-671,-366
2025-10-11 16:32:39.618,630,-306,747,2136,488,-366
2025-10-11 16:32:39.619,633,-291,750,1525,549,-122
2025-10-11 16:32:39.619,639,-297,749,488,488,-183
2025-10-11 16:32:39.666,641,-314,746,976,1403,-732
2025-10-11 16:32:39.667,631,-305,744,1708,3479,976
2025-10-11 16:32:39.713,636,-303,749,1220,3784,-732
2025-10-11 16:32:39.713,628,-320,747,1159,2014,-2014
2025-10-11 16:32:39.714,630,-319,746,2746,915,-488
2025-10-11 16:32:39.761,623,-291,749,1098,61,1953
2025-10-11 16:32:39.762,642,-295,746,-1831,0,2441
2025-10-11 16:32:39.810,629,-312,742,-1892,427,3051
2025-10-11 16:32:39.811,629,-322,742,-671,1403,2685
2025-10-11 16:32:39.811,623,-303,742,488,1708,2197
2025-10-11 16:32:39.859,626,-313,738,671,1342,427
2025-10-11 16:32:39.860,613,-311,739,1647,854,-793
2025-10-11 16:32:39.911,620,-300,743,1098,-854,610
2025-10-11 16:32:39.911,625,-305,736,-427,-1525,244
2025-10-11 16:32:39.958,618,-308,731,-366,-2014,122
2025-10-11 16:32:39.960,630,-313,736,-976,-1892,-1281
2025-10-11 16:32:39.962,628,-319,747,-488,-1953,-1953
2025-10-11 16:32:40.006,626,-328,742,549,-2014,-1281
2025-10-11 16:32:40.008,625,-316,744,1464,-1647,-1403
2025-10-11 16:32:40.054,624,-308,746,1403,-854,244
2025-10-11 16:32:40.055,617,-296,744,427,-1342,1464
2025-10-11 16:32:40.055,633,-309,744,-427,-1220,427
2025-10-11 16:32:40.103,631,-322,751,1281,-976,-793
2025-10-11 16:32:40.104,638,-316,752,3173,122,-1342
2025-10-11 16:32:40.152,642,-306,756,4089,2014,-1892
2025-10-11 16:32:40.153,646,-305,758,4089,3051,-1037
2025-10-11 16:32:40.153,652,-309,764,5004,6164,-244
2025-10-11 16:32:40.207,662,-308,768,7995,11291,366
2025-10-11 16:32:40.207,664,-292,757,11901,20263,122
2025-10-11 16:32:40.249,658,-303,760,15136,-30746,-3723
2025-10-11 16:32:40.251,616,-308,781,23132,-18295,-8666
2025-10-11 16:32:40.298,606,-279,787,32104,-11215,-14892
2025-10-11 16:32:40.299,586,-278,792,-20370,-1022,-18554
2025-10-11 16:32:40.300,563,-234,790,-5722,11063,-18310
2025-10-11 16:32:40.346,552,-218,778,-13596,32425,-14770
2025-10-11 16:32:40.347,517,-195,809,-20798,-10284,-9460
2025-10-11 16:32:40.395,507,-126,846,29235,-25832,-1220
2025-10-11 16:32:40.396,460,-171,893,-16220,22935,366
2025-10-11 16:32:40.396,330,-42,911,30883,-21239,22155
2025-10-11 16:32:40.444,220,-180,930,14953,-16173,26428
2025-10-11 16:32:40.445,99,-252,998,25817,-31248,23437
2025-10-11 16:32:40.542,-45,-179,1055,-23788,8042,12451
2025-10-11 16:32:40.543,-157,-116,1049,-17990,-21682,17700
2025-10-11 16:32:40.543,-166,-115,1025,-23666,18403,14831
2025-10-11 16:32:40.545,-195,-58,1018,-31784,-8209,7446
2025-10-11 16:32:40.590,-239,-41,989,29113,-26458,-1708
2025-10-11 16:32:40.591,-364,-46,1006,16418,10941,-732
2025-10-11 16:32:40.592,-364,-61,956,14404,-16220,-122
2025-10-11 16:32:40.592,-371,-58,964,10742,29907,1037
2025-10-11 16:32:40.639,-347,-12,954,9582,14160,-61
2025-10-11 16:32:40.640,-328,-5,949,5187,9643,122
2025-10-11 16:32:40.688,-310,-42,954,2075,11352,3051
2025-10-11 16:32:40.689,-319,-58,958,4211,14099,2380
2025-10-11 16:32:40.737,-345,-41,965,7385,11169,2807
2025-10-11 16:32:40.737,-363,-5,961,5859,1708,549
2025-10-11 16:32:40.738,-360,24,940,-2868,-8544,-1586
2025-10-11 16:32:40.786,-317,-5,941,-4638,-5310,1525
2025-10-11 16:32:40.786,-310,-75,972,976,-976,-122
2025-10-11 16:32:40.835,-335,-31,977,5493,732,-1647
2025-10-11 16:32:40.835,-335,-12,966,3845,-915,-1464
2025-10-11 16:32:40.836,-340,-12,965,-183,-4272,-1708
2025-10-11 16:32:40.883,-339,-19,969,-2990,-8483,-2380
2025-10-11 16:32:40.885,-332,-34,967,-4699,-11535,-1464
2025-10-11 16:32:40.932,-305,-54,965,-2380,-8361,-183
2025-10-11 16:32:40.933,-296,-42,975,1708,-3479,61
2025-10-11 16:32:40.934,-313,-31,981,1892,-183,-671
2025-10-11 16:32:40.981,-324,-33,981,305,488,1342
2025-10-11 16:32:40.982,-319,-25,978,-1098,-1037,915
2025-10-11 16:32:41.030,-321,-22,972,-2258,-3845,-122
2025-10-11 16:32:41.030,-317,-40,964,-2197,-6225,-854
2025-10-11 16:32:41.081,-305,-32,961,-1159,-5310,0
2025-10-11 16:32:41.081,-298,-28,972,-366,-3906,0
2025-10-11 16:32:41.081,-303,-32,980,183,-2868,-427
2025-10-11 16:32:41.127,-309,-25,974,488,-2014,-183
2025-10-11 16:32:41.130,-308,-18,974,-671,-1708,366
2025-10-11 16:32:41.176,-303,-25,972,-549,-1708,122
2025-10-11 16:32:41.176,-299,-28,964,-366,-1708,-610
2025-10-11 16:32:41.177,-305,-25,966,-61,-1708,-671
2025-10-11 16:32:41.273,-306,-28,971,183,-2258,-1403
2025-10-11 16:32:41.274,-304,-26,970,-122,-2441,-1342
2025-10-11 16:32:41.275,-305,-26,970,-732,-2746,-1037
2025-10-11 16:32:41.276,-302,-34,974,-244,-1953,-793
2025-10-11 16:32:41.322,-299,-33,977,1281,-976,-915
2025-10-11 16:32:41.322,-303,-25,974,671,-854,-1159
2025-10-11 16:32:41.323,-302,-31,971,-122,-1037,-1403
2025-10-11 16:32:41.371,-304,-37,979,-732,-2258,-1953
2025-10-11 16:32:41.372,-302,-39,976,-1708,-3356,-1647
2025-10-11 16:32:41.372,-289,-51,978,-1159,-2197,-793
2025-10-11 16:32:41.422,-296,-48,983,488,-1281,-732
2025-10-11 16:32:41.422,-302,-37,978,1037,-1159,-305
2025-10-11 16:32:41.468,-301,-31,981,-549,-1831,-732
2025-10-11 16:32:41.468,-298,-37,976,-2197,-2502,-1098
2025-10-11 16:32:41.517,-293,-49,979,-1342,-2136,-183
2025-10-11 16:32:41.517,-298,-45,986,-1525,-1770,244
2025-10-11 16:32:41.518,-282,-44,974,-915,-732,-61
2025-10-11 16:32:41.565,-291,-44,973,305,305,122
2025-10-11 16:32:41.566,-297,-41,976,854,-488,0
2025-10-11 16:32:41.614,-294,-27,977,0,-1220,-488
2025-10-11 16:32:41.614,-297,-33,980,-1525,-2380,-1159
2025-10-11 16:32:41.616,-290,-48,977,-1342,-2380,-732
2025-10-11 16:32:41.683,-287,-47,981,427,-1831,-122
2025-10-11 16:32:41.683,-292,-38,982,305,-1281,-61
2025-10-11 16:32:41.715,-291,-43,981,-305,-610,-305
2025-10-11 16:32:41.715,-289,-48,975,0,-549,0
2025-10-11 16:32:41.715,-288,-45,972,427,-549,610
2025-10-11 16:32:41.761,-291,-39,972,793,-854,0
2025-10-11 16:32:41.762,-298,-40,975,1525,-2014,61
2025-10-11 16:32:41.809,-285,-38,976,854,-1586,793
2025-10-11 16:32:41.810,-288,-38,977,183,-1403,915
2025-10-11 16:32:41.858,-286,-36,983,-1342,-1220,854
2025-10-11 16:32:41.858,-286,-28,981,-3295,-1220,366
2025-10-11 16:32:41.859,-285,-22,979,-7263,-1708,-1464
2025-10-11 16:32:41.906,-293,-13,978,-13549,-2258,-2929
2025-10-11 16:32:41.907,-287,-47,982,-18493,-2929,-3662
2025-10-11 16:32:41.981,-281,-102,987,-12329,-3051,-2258
2025-10-11 16:32:41.981,-279,-103,988,-1037,-2563,15380
2025-10-11 16:32:41.981,-280,-66,982,3295,-1159,61
2025-10-11 16:32:42.009,-284,-41,980,-1953,-671,-1342
2025-10-11 16:32:42.009,-285,-76,987,-1708,-1525,-1525
2025-10-11 16:32:42.053,-279,-75,981,488,-1892,-183
2025-10-11 16:32:42.055,-277,-65,979,1342,-1403,-183
2025-10-11 16:32:42.056,-282,-62,985,183,-1037,-366
2025-10-11 16:32:42.102,-281,-63,980,-366,-1220,-183
2025-10-11 16:32:42.102,-278,-61,974,305,-1586,244
2025-10-11 16:32:42.150,-273,-54,973,-427,-1037,-61
2025-10-11 16:32:42.151,-276,-60,976,-122,-1464,-610
2025-10-11 16:32:42.152,-275,-58,972,-1037,-1831,-549
2025-10-11 16:32:42.199,-269,-63,973,-1281,-1281,-427
2025-10-11 16:32:42.200,-275,-64,974,854,-1159,-732
2025-10-11 16:32:42.277,-279,-57,978,1525,-1525,-1281
2025-10-11 16:32:42.277,-276,-52,980,427,-1892,-1708
2025-10-11 16:32:42.277,-271,-62,979,-61,-1403,-2014
2025-10-11 16:32:42.305,-280,-70,978,-244,-1647,-1403
2025-10-11 16:32:42.305,-278,-72,980,427,-2014,-610
2025-10-11 16:32:42.346,-271,-67,983,732,-2014,-854
2025-10-11 16:32:42.346,-265,-69,982,1464,-2014,-1342
2025-10-11 16:32:42.394,-268,-66,984,-183,-2136,-976
2025-10-11 16:32:42.395,-271,-70,985,-549,-2258,-732
2025-10-11 16:32:42.395,-270,-73,991,183,-2441,-854
2025-10-11 16:32:42.443,-268,-70,988,549,-2075,-488
2025-10-11 16:32:42.443,-268,-69,991,1525,-1770,-305
2025-10-11 16:32:42.492,-268,-60,988,305,-1037,-183
2025-10-11 16:32:42.492,-265,-64,981,-488,-610,-427
2025-10-11 16:32:42.493,-270,-71,979,-305,-488,-366
2025-10-11 16:32:42.540,-268,-70,977,-366,-854,0
2025-10-11 16:32:42.541,-267,-72,981,854,-1159,-366
2025-10-11 16:32:42.590,-269,-64,980,793,-976,244
2025-10-11 16:32:42.590,-269,-63,981,549,-793,244
2025-10-11 16:32:42.638,-269,-64,982,1464,-1220,366
2025-10-11 16:32:42.640,-268,-62,986,1159,-1403,427
2025-10-11 16:32:42.640,-260,-61,989,1098,-1159,-183
2025-10-11 16:32:42.687,-264,-60,991,488,-1403,-732
2025-10-11 16:32:42.687,-264,-71,992,305,-2258,-305
2025-10-11 16:32:42.736,-260,-74,994,1098,-2929,427
2025-10-11 16:32:42.736,-257,-67,993,976,-2990,610
2025-10-11 16:32:42.737,-253,-67,992,1037,-2075,244
2025-10-11 16:32:42.784,-253,-61,991,2746,671,1037
2025-10-11 16:32:42.785,-265,-50,988,1525,610,305
2025-10-11 16:32:42.833,-267,-55,982,61,-793,244
2025-10-11 16:32:42.833,-269,-60,986,-305,-2258,793
2025-10-11 16:32:42.834,-252,-57,989,915,-2197,427
2025-10-11 16:32:42.883,-260,-52,991,1220,-1953,-1098
2025-10-11 16:32:42.883,-265,-57,990,-732,-1647,-1281
2025-10-11 16:32:42.931,-257,-69,987,183,-1159,-305
2025-10-11 16:32:42.931,-254,-63,991,1342,-549,-122
2025-10-11 16:32:42.932,-259,-55,986,488,-732,-183
2025-10-11 16:32:42.979,-263,-65,989,-366,-2990,-915
2025-10-11 16:32:42.980,-263,-70,992,-183,-5004,-1892
2025-10-11 16:32:43.028,-263,-63,991,-2868,-8117,-2685
2025-10-11 16:32:43.029,-271,-73,996,-5554,-13793,-4150
2025-10-11 16:32:43.076,-260,-58,989,-9216,-19836,-4882
2025-10-11 16:32:43.077,-249,-49,980,-12390,-24658,-6347
2025-10-11 16:32:43.078,-228,-64,987,-19348,-26916,-8422
2025-10-11 16:32:43.126,-220,-86,989,-22949,-27587,-9399
2025-10-11 16:32:43.126,-200,-115,1000,-24719,-24291,-5249
2025-10-11 16:32:43.175,-185,-132,1006,-21423,-23376,-3234
2025-10-11 16:32:43.175,-176,-113,1010,-28076,-24963,-2319
2025-10-11 16:32:43.176,-212,-126,1025,31296,29221,-7019
2025-10-11 16:32:43.223,-201,-169,1055,17258,7736,-8178
2025-10-11 16:32:43.225,-229,-208,1071,10666,-24185,-7934
2025-10-11 16:32:43.272,-165,-194,1010,6882,396,-7324
2025-10-11 16:32:43.272,-56,-197,962,17746,25832,-27770
2025-10-11 16:32:43.273,-18,-236,945,30014,13686,25803
2025-10-11 16:32:43.320,120,-315,941,-14160,11123,14389
2025-10-11 16:32:43.321,162,-299,917,3967,16982,14633
2025-10-11 16:32:43.446,198,-274,894,15563,-23407,-17700
2025-10-11 16:32:43.446,259,-208,847,23559,-14985,854
2025-10-11 16:32:43.446,377,-134,834,7934,-9125,5798
2025-10-11 16:32:43.446,475,-157,851,-15136,-3632,-6225
2025-10-11 16:32:43.474,459,-178,817,-18676,3204,-17761
2025-10-11 16:32:43.474,467,-150,802,-24780,9490,-10314
2025-10-11 16:32:43.474,556,-221,789,-29968,22003,4272
2025-10-11 16:32:43.516,633,-252,778,-26672,-13870,13854
2025-10-11 16:32:43.518,659,-288,783,-23376,17136,18981
2025-10-11 16:32:43.520,651,-314,795,-18676,29953,16845
2025-10-11 16:32:43.564,647,-325,798,-9643,-25512,12268
2025-10-11 16:32:43.565,649,-299,790,-3417,-20263,3540
2025-10-11 16:32:43.613,659,-282,779,183,-13427,427
2025-10-11 16:32:43.613,665,-284,780,732,-5859,-793
2025-10-11 16:32:43.614,659,-310,789,2258,-1586,2075
2025-10-11 16:32:43.661,658,-302,786,1831,-2563,3112
2025-10-11 16:32:43.662,658,-281,786,1281,-2380,3540
2025-10-11 16:32:43.710,659,-270,778,-1464,-549,5310
2025-10-11 16:32:43.711,643,-303,772,-2441,854,3662
2025-10-11 16:32:43.712,644,-307,772,-244,427,4211
2025-10-11 16:32:43.766,638,-298,760,1831,2441,3051
2025-10-11 16:32:43.766,639,-283,762,1953,8361,2502
2025-10-11 16:32:43.808,623,-298,759,1098,9277,1708
2025-10-11 16:32:43.810,609,-302,755,2319,7507,549
2025-10-11 16:32:43.857,602,-278,753,2441,4516,1281
2025-10-11 16:32:43.857,597,-265,752,427,2441,2075
2025-10-11 16:32:43.858,606,-283,752,-488,2380,1953
2025-10-11 16:32:43.905,600,-294,752,671,2258,427
2025-10-11 16:32:43.906,594,-293,754,793,1098,-1159
2025-10-11 16:32:43.954,598,-298,752,1281,305,-2319
2025-10-11 16:32:43.955,593,-266,753,1464,122,-1708
2025-10-11 16:32:43.955,606,-271,753,-610,1098,-2258
2025-10-11 16:32:44.057,604,-313,761,122,-183,-2014
2025-10-11 16:32:44.057,611,-310,763,1770,-122,-2136
2025-10-11 16:32:44.057,614,-289,765,1708,61,-1953
2025-10-11 16:32:44.057,616,-288,770,610,1159,-1647
2025-10-11 16:32:44.102,616,-306,777,976,1403,-2014
2025-10-11 16:32:44.103,610,-297,782,1647,122,-1281
2025-10-11 16:32:44.103,623,-297,780,793,61,-1342
2025-10-11 16:32:44.149,617,-297,775,366,915,-671
2025-10-11 16:32:44.150,619,-300,773,427,2746,-61
2025-10-11 16:32:44.198,616,-313,778,3234,2380,-2014
2025-10-11 16:32:44.198,614,-296,777,3173,1770,-1342
2025-10-11 16:32:44.199,617,-286,776,1953,1953,-427
2025-10-11 16:32:44.246,617,-295,775,305,2624,0
2025-10-11 16:32:44.247,610,-306,772,244,1892,305
2025-10-11 16:32:44.322,605,-316,768,2258,1220,-793
2025-10-11 16:32:44.323,604,-293,767,2929,671,366
2025-10-11 16:32:44.323,605,-276,767,2136,1586,793
2025-10-11 16:32:44.350,604,-276,770,671,2380,1342
2025-10-11 16:32:44.350,598,-287,769,976,3356,549
2025-10-11 16:32:44.394,591,-284,770,1464,2258,61
2025-10-11 16:32:44.395,589,-274,768,793,1525,-610
2025-10-11 16:32:44.395,593,-288,768,-488,427,-976
2025-10-11 16:32:44.442,593,-292,769,-183,0,-854
2025-10-11 16:32:44.443,591,-271,766,-1831,-427,488
2025-10-11 16:32:44.539,596,-277,768,-3662,-549,-671
2025-10-11 16:32:44.540,598,-280,773,-3173,549,-915
2025-10-11 16:32:44.541,604,-290,779,-1892,1708,-2197
2025-10-11 16:32:44.541,603,-289,787,-1037,1831,-2624
2025-10-11 16:32:44.615,620,-267,788,-1098,3906,-1037
2025-10-11 16:32:44.615,625,-281,784,1037,14404,-1098
2025-10-11 16:32:44.615,629,-291,791,8178,26916,2929
2025-10-11 16:32:44.643,647,-245,785,11596,-15427,10437
2025-10-11 16:32:44.643,633,-255,774,10864,22659,13244
2025-10-11 16:32:44.643,598,-304,780,7873,-5645,3967
2025-10-11 16:32:44.686,541,-328,829,-244,14618,2624
2025-10-11 16:32:44.687,482,-339,865,61,28779,9033
2025-10-11 16:32:44.734,414,-304,902,20507,-21499,20324
2025-10-11 16:32:44.734,370,-230,897,-30930,9324,24963
2025-10-11 16:32:44.735,259,-248,920,18493,8103,24597
2025-10-11 16:32:44.783,125,-333,950,26550,-15212,11962
2025-10-11 16:32:44.783,13,-376,972,-5844,27375,12756
2025-10-11 16:32:44.832,45,-221,965,8926,22919,5310
2025-10-11 16:32:44.832,1,-90,963,259,31647,4089
2025-10-11 16:32:44.833,-126,-129,948,-17014,-30898,3784
2025-10-11 16:32:44.908,-260,-141,1036,-19760,11628,-549
2025-10-11 16:32:44.909,-406,-106,981,-17868,-17730,11291
2025-10-11 16:32:44.936,-272,-161,996,-20370,24551,1220
2025-10-11 16:32:44.936,-383,-55,949,-21652,-8652,-915
2025-10-11 16:32:44.980,-360,-76,934,-26413,-25925,-2563
2025-10-11 16:32:44.981,-309,-29,926,31494,28564,-2624
2025-10-11 16:32:44.981,-378,29,965,11901,18188,-6530
2025-10-11 16:32:45.027,-404,-30,943,-1647,-854,-6103
2025-10-11 16:32:45.027,-356,-43,925,-6591,-12939,3540
2025-10-11 16:32:45.075,-296,-70,921,-6835,-10864,9521
2025-10-11 16:32:45.076,-276,-108,967,-1159,244,3479
2025-10-11 16:32:45.077,-339,-39,974,2197,3723,549
2025-10-11 16:32:45.124,-374,-40,960,-4089,-4882,-2075
2025-10-11 16:32:45.125,-354,-57,963,-8728,-15197,-1525
2025-10-11 16:32:45.173,-322,-39,958,-13183,-18493,-1770
2025-10-11 16:32:45.173,-307,-93,980,-10803,-12207,-1525
2025-10-11 16:32:45.201,-309,-109,992,-2502,-8728,-244
2025-10-11 16:32:45.228,-328,-91,998,1159,-11169,-671
2025-10-11 16:32:45.228,-310,-73,987,-2441,-15258,-1281
2025-10-11 16:32:45.271,-290,-72,981,-5310,-14709,-2136
2025-10-11 16:32:45.273,-269,-84,978,-5981,-8361,-1708
2025-10-11 16:32:45.273,-267,-115,993,-488,-1220,-549
2025-10-11 16:32:45.319,-293,-96,997,3295,488,427
2025-10-11 16:32:45.320,-310,-74,986,305,-3906,1953
2025-10-11 16:32:45.368,-306,-76,981,-2075,-10253,1159
2025-10-11 16:32:45.369,-264,-76,995,-1281,-6042,915
2025-10-11 16:32:45.416,-260,-78,977,549,-1159,-183
2025-10-11 16:32:45.417,-276,-89,979,976,793,305
2025-10-11 16:32:45.418,-286,-76,977,549,-671,671
2025-10-11 16:32:45.491,-286,-68,973,-1647,-3662,-244
2025-10-11 16:32:45.491,-277,-78,978,-1892,-5371,-976
2025-10-11 16:32:45.520,-259,-82,968,0,-3295,-915
2025-10-11 16:32:45.520,-265,-87,982,1159,-671,-305
2025-10-11 16:32:45.520,-280,-74,982,610,-1281,-915
2025-10-11 16:32:45.564,-285,-74,975,-488,-4394,-488
2025-10-11 16:32:45.565,-273,-74,975,-183,-4882,-244
2025-10-11 16:32:45.612,-261,-80,988,-244,-2136,-915
2025-10-11 16:32:45.613,-271,-84,991,-305,-183,-976
2025-10-11 16:32:45.613,-275,-83,989,976,122,-854
2025-10-11 16:32:45.661,-273,-79,986,488,-1892,-1831
2025-10-11 16:32:45.661,-276,-82,986,-549,-4699,-2685
2025-10-11 16:32:45.709,-273,-89,987,-976,-6469,-2502
2025-10-11 16:32:45.710,-258,-93,985,488,-4760,-1403
2025-10-11 16:32:45.788,-248,-89,991,366,-1159,-610
2025-10-11 16:32:45.789,-261,-87,996,610,976,-61
2025-10-11 16:32:45.789,-271,-85,992,-1586,-2075,-183
2025-10-11 16:32:45.807,-272,-89,980,-2990,-4882,-61
2025-10-11 16:32:45.816,-255,-85,975,-2258,-4882,-366
2025-10-11 16:32:45.858,-251,-85,975,-3112,-3234,-549
2025-10-11 16:32:45.858,-259,-109,980,-2624,-2685,732
2025-10-11 16:32:45.859,-266,-98,969,-1464,-4882,2136
2025-10-11 16:32:45.904,-261,-84,962,-4089,-6958,2441
2025-10-11 16:32:45.905,-253,-94,958,-6286,-8483,2258
2025-10-11 16:32:45.953,-249,-110,960,-5493,-8728,1647
2025-10-11 16:32:45.954,-245,-112,970,-3540,-7873,3234
2025-10-11 16:32:45.954,-245,-120,979,-1647,-6469,2563
2025-10-11 16:32:46.002,-247,-109,987,1037,-6591,4089
2025-10-11 16:32:46.003,-239,-93,990,610,-7080,4089
2025-10-11 16:32:46.050,-233,-87,993,-305,-6652,2990
2025-10-11 16:32:46.051,-231,-86,994,-427,-5676,2075
2025-10-11 16:32:46.052,-228,-90,1002,-61,-5126,1098
2025-10-11 16:32:46.115,-229,-83,1004,-610,-5126,1159
2025-10-11 16:32:46.115,-228,-86,999,-1098,-5737,1342
2025-10-11 16:32:46.152,-225,-89,1004,-1892,-6286,1403
2025-10-11 16:32:46.152,-213,-96,1004,-793,-5126,1220
2025-10-11 16:32:46.199,-213,-93,1001,-305,-1770,2197
2025-10-11 16:32:46.199,-218,-88,1000,-1281,-1037,2563
2025-10-11 16:32:46.200,-228,-91,1000,-4028,-2441,2136
2025-10-11 16:32:46.245,-227,-105,1000,-4211,-4394,2075
2025-10-11 16:32:46.246,-214,-106,993,-2075,-4394,1586
2025-10-11 16:32:46.294,-204,-107,992,488,-1464,427
2025-10-11 16:32:46.294,-213,-99,994,1281,610,-183
2025-10-11 16:32:46.295,-225,-107,995,366,-244,122
2025-10-11 16:32:46.343,-218,-99,991,-488,-2319,671
2025-10-11 16:32:46.343,-212,-89,985,-1586,-3356,-61
2025-10-11 16:32:46.391,-213,-102,980,-1037,-2807,-1037
2025-10-11 16:32:46.392,-214,-113,984,244,-2563,-305
2025-10-11 16:32:46.393,-213,-102,983,549,-2685,-488
2025-10-11 16:32:46.445,-212,-92,980,122,-1770,-1098
2025-10-11 16:32:46.445,-219,-100,987,-1159,-1770,-1586
2025-10-11 16:32:46.491,-210,-112,984,-366,-2197,-1770
2025-10-11 16:32:46.492,-214,-108,978,732,-3845,-1342
2025-10-11 16:32:46.538,-198,-105,975,-183,-3295,-1220
2025-10-11 16:32:46.539,-198,-117,987,-61,-1770,-1037
2025-10-11 16:32:46.539,-213,-113,988,-244,-1831,-488
2025-10-11 16:32:46.587,-218,-114,994,-366,-4516,-671
2025-10-11 16:32:46.587,-207,-106,988,-732,-5065,-366
2025-10-11 16:32:46.684,-200,-113,987,366,-4638,-610
2025-10-11 16:32:46.685,-202,-111,990,61,-4150,-549
2025-10-11 16:32:46.686,-202,-116,990,-732,-4577,-427
2025-10-11 16:32:46.686,-194,-123,988,1770,-4394,-61
2025-10-11 16:32:46.742,-186,-109,996,732,-2868,-305
2025-10-11 16:32:46.742,-205,-112,1001,-366,-3601,122
2025-10-11 16:32:46.742,-198,-118,1007,-427,-4699,305
2025-10-11 16:32:46.784,-194,-116,999,305,-5065,305
2025-10-11 16:32:46.784,-197,-116,1002,1525,-5615,122
2025-10-11 16:32:46.784,-185,-105,998,732,-5126,549
2025-10-11 16:32:46.831,-185,-104,998,2014,-4943,549
2025-10-11 16:32:46.831,-178,-93,993,244,-4699,793
2025-10-11 16:32:46.832,-173,-89,987,-1586,-3662,976
2025-10-11 16:32:46.879,-183,-104,999,-2441,-4150,488
2025-10-11 16:32:46.880,-177,-114,997,-671,-4699,-366
2025-10-11 16:32:46.928,-176,-111,995,366,-4455,-793
2025-10-11 16:32:46.928,-176,-111,1011,-854,-3967,-305
2025-10-11 16:32:46.977,-170,-110,1017,-793,-3662,-244
2025-10-11 16:32:46.978,-172,-123,1024,1892,-4211,-549
2025-10-11 16:32:46.979,-166,-104,1014,-488,-3234,-366
2025-10-11 16:32:47.034,-168,-107,1015,-1647,-3051,-488
2025-10-11 16:32:47.075,-167,-116,1022,-1159,-3295,-610
2025-10-11 16:32:47.076,-167,-119,1020,-305,-3356,-732
2025-10-11 16:32:47.076,-167,-120,1020,-122,-2380,-427
2025-10-11 16:32:47.077,-161,-121,1018,427,-1647,-549
2025-10-11 16:32:47.123,-158,-118,1015,671,-671,0
2025-10-11 16:32:47.124,-165,-110,1012,-244,-610,61
2025-10-11 16:32:47.172,-163,-117,1014,0,-305,305
2025-10-11 16:32:47.172,-163,-108,1005,-183,-183,-183
2025-10-11 16:32:47.173,-164,-112,997,-549,-1098,-244
2025-10-11 16:32:47.220,-163,-108,990,-610,-1342,-183
2025-10-11 16:32:47.221,-162,-118,994,122,-427,610
2025-10-11 16:32:47.269,-163,-111,995,1220,-366,854
2025-10-11 16:32:47.270,-160,-104,991,0,-549,549
2025-10-11 16:32:47.327,-167,-100,985,-915,-1220,305
2025-10-11 16:32:47.327,-168,-111,983,-1464,-2319,-549
2025-10-11 16:32:47.327,-155,-113,982,-366,-2441,-549
2025-10-11 16:32:47.367,-150,-117,983,1281,-1220,-61
2025-10-11 16:32:47.368,-162,-114,999,2197,-1159,-244
2025-10-11 16:32:47.415,-167,-113,1010,1159,-1953,-427
2025-10-11 16:32:47.416,-161,-121,1011,305,-2990,-1098
2025-10-11 16:32:47.416,-155,-124,1016,610,-2868,-488
2025-10-11 16:32:47.465,-155,-114,1023,427,-2136,-122
2025-10-11 16:32:47.465,-161,-118,1025,-610,-1770,122
2025-10-11 16:32:47.514,-156,-122,1024,-183,-1464,122
2025-10-11 16:32:47.514,-157,-124,1025,732,-1342,0
2025-10-11 16:32:47.515,-155,-112,1024,793,-366,427
2025-10-11 16:32:47.562,-159,-111,1026,-122,427,549
2025-10-11 16:32:47.562,-162,-106,1025,854,61,0
2025-10-11 16:32:47.618,-156,-106,1018,976,-305,-61
2025-10-11 16:32:47.618,-157,-113,1018,0,183,366
2025-10-11 16:32:47.618,-156,-116,1013,549,793,427
2025-10-11 16:32:47.661,-155,-108,1008,976,671,427
2025-10-11 16:32:47.661,-155,-104,995,1098,-732,-671
2025-10-11 16:32:47.708,-159,-104,997,854,-2197,-1403
2025-10-11 16:32:47.708,-157,-110,1000,671,-2868,-1525
2025-10-11 16:32:47.757,-146,-109,999,1098,-1464,-1098
2025-10-11 16:32:47.757,-152,-103,1003,183,-61,-1098
2025-10-11 16:32:47.758,-154,-112,1003,366,-549,-1159
2025-10-11 16:32:47.805,-160,-109,998,-61,-2136,-1098
2025-10-11 16:32:47.806,-155,-113,999,-610,-3540,-1220
2025-10-11 16:32:47.855,-149,-118,1001,1708,-3906,-2136
2025-10-11 16:32:47.856,-138,-111,997,1525,-1586,-1525
2025-10-11 16:32:47.856,-156,-112,1003,122,-915,-1586
2025-10-11 16:32:47.910,-150,-122,1007,-427,-1586,-1281
2025-10-11 16:32:47.910,-153,-122,1000,1159,-2624,-1037
2025-10-11 16:32:47.953,-152,-110,999,1098,-2929,-732
2025-10-11 16:32:47.953,-149,-110,1003,244,-1586,-549
2025-10-11 16:32:47.955,-148,-114,1009,1586,-732,-732
2025-10-11 16:32:48.000,-149,-126,1011,2197,-1464,-122
2025-10-11 16:32:48.001,-143,-127,1005,1342,-1892,915
2025-10-11 16:32:48.050,-139,-125,1005,1586,-1037,1586
2025-10-11 16:32:48.051,-138,-111,999,1831,610,1708
2025-10-11 16:32:48.051,-143,-106,1004,1770,1342,366
2025-10-11 16:32:48.098,-160,-115,1011,854,-1586,-427
2025-10-11 16:32:48.099,-157,-118,1017,1037,-5615,-549
2025-10-11 16:32:48.147,-158,-116,1028,427,-9887,-2319
2025-10-11 16:32:48.147,-138,-91,1002,-1770,-11169,-4394
2025-10-11 16:32:48.200,-133,-119,1010,-366,-9216,-4211
2025-10-11 16:32:48.201,-128,-118,1014,1281,-6347,-3112
2025-10-11 16:32:48.201,-118,-109,1012,2624,-3540,-1892
2025-10-11 16:32:48.245,-114,-97,1009,549,-1464,-2197
2025-10-11 16:32:48.247,-128,-103,1008,-793,-1708,-2380
2025-10-11 16:32:48.293,-121,-113,1014,122,-2075,-1892
2025-10-11 16:32:48.294,-118,-103,1009,915,-1525,-1342
2025-10-11 16:32:48.294,-118,-104,1011,1037,-305,-1220
2025-10-11 16:32:48.390,-123,-100,1014,1037,-244,-610
2025-10-11 16:32:48.391,-129,-98,1022,-183,-1831,-732
2025-10-11 16:32:48.392,-132,-98,1027,-4516,-7446,-1770
2025-10-11 16:32:48.392,-147,-97,1042,-8728,-15319,-2990
2025-10-11 16:32:48.439,-170,-77,1051,-19165,-31127,-5371
2025-10-11 16:32:48.440,-180,-74,1053,29648,4807,-1281
2025-10-11 16:32:48.440,-164,-109,1037,15610,-27725,14648
2025-10-11 16:32:48.496,-58,-175,1030,13046,6927,19409
2025-10-11 16:32:48.496,76,-199,1027,15671,-21882,244
2025-10-11 16:32:48.537,104,-242,1052,32272,-29999,-25939
2025-10-11 16:32:48.538,38,-281,1038,-20935,-13520,-22155
2025-10-11 16:32:48.539,211,-312,983,-14038,-3388,6530
2025-10-11 16:32:48.586,376,-353,973,2197,10955,15136
2025-10-11 16:32:48.586,290,-271,914,1159,25054,9826
2025-10-11 16:32:48.634,271,-186,833,-19836,17120,20690
2025-10-11 16:32:48.634,298,-209,776,15121,-13337,24475
2025-10-11 16:32:48.635,411,-271,771,12314,-22370,-2624
2025-10-11 16:32:48.683,505,-297,760,30930,3326,22995
2025-10-11 16:32:48.684,546,-288,773,-21179,-18875,13840
2025-10-11 16:32:48.761,567,-261,798,-3601,31845,30136
2025-10-11 16:32:48.762,514,-223,798,4760,-6591,-4821
2025-10-11 16:32:48.762,493,-214,785,-2014,-12207,13061
2025-10-11 16:32:48.789,527,-196,787,-23193,-23864,19897
2025-10-11 16:32:48.789,560,-283,780,-30212,-25573,18188
2025-10-11 16:32:48.831,593,-348,790,-26428,-20080,13183
2025-10-11 16:32:48.831,590,-376,795,-14099,-10681,11108
2025-10-11 16:32:48.878,574,-356,789,-2685,-7385,11108
2025-10-11 16:32:48.878,589,-340,791,2075,-5920,5126
2025-10-11 16:32:48.879,588,-319,810,3784,-3234,-2929
2025-10-11 16:32:48.927,582,-316,808,2319,-4516,-3845
2025-10-11 16:32:48.927,586,-330,791,793,-7202,-2807
2025-10-11 16:32:48.976,610,-345,790,122,-7446,-3417
2025-10-11 16:32:48.977,609,-348,794,2441,-2319,-1281
2025-10-11 16:32:48.977,605,-330,794,3112,-2075,2319
2025-10-11 16:32:49.025,602,-323,790,1098,-610,2868
2025-10-11 16:32:49.025,596,-341,785,610,549,1953
2025-10-11 16:32:49.081,588,-329,787,1708,3173,2685
2025-10-11 16:32:49.081,582,-327,783,2624,3479,1892
2025-10-11 16:32:49.082,568,-314,772,3051,2502,1770
2025-10-11 16:32:49.122,571,-320,766,2563,2075,1037
2025-10-11 16:32:49.122,570,-328,770,2929,1770,-427
2025-10-11 16:32:49.171,567,-337,773,3784,915,-427
2025-10-11 16:32:49.172,574,-324,777,4577,427,305
2025-10-11 16:32:49.172,573,-317,779,4211,0,-488
2025-10-11 16:32:49.220,574,-313,783,3234,-1037,305
2025-10-11 16:32:49.221,577,-315,784,2807,-1037,1159
2025-10-11 16:32:49.268,578,-306,783,1708,-671,1525
2025-10-11 16:32:49.269,572,-312,776,610,-366,366
2025-10-11 16:32:49.317,565,-325,777,1831,488,-1037
2025-10-11 16:32:49.318,566,-319,781,3112,-244,-488
2025-10-11 16:32:49.319,572,-321,781,3906,122,-976
2025-10-11 16:32:49.374,568,-311,784,3051,-122,-244
2025-10-11 16:32:49.374,571,-312,784,1403,305,854
2025-10-11 16:32:49.415,572,-327,783,1403,-1342,-488
2025-10-11 16:32:49.416,576,-328,782,2441,-1342,-1708
2025-10-11 16:32:49.417,574,-315,786,3540,183,-915
2025-10-11 16:32:49.463,573,-301,782,2746,305,1098
2025-10-11 16:32:49.464,578,-312,784,793,122,366
2025-10-11 16:32:49.512,582,-325,792,305,-610,-244
2025-10-11 16:32:49.512,581,-323,793,1464,-1281,366
2025-10-11 16:32:49.513,586,-301,795,1464,-1098,915
2025-10-11 16:32:49.560,589,-308,788,244,-305,-61
2025-10-11 16:32:49.561,581,-331,786,3540,2136,-488
2025-10-11 16:32:49.609,574,-312,791,4394,1464,976
2025-10-11 16:32:49.610,581,-302,794,2380,1403,549
2025-10-11 16:32:49.667,581,-298,800,122,1342,610
2025-10-11 16:32:49.667,580,-305,802,122,2868,1464
2025-10-11 16:32:49.667,581,-301,805,1220,5249,1892
2025-10-11 16:32:49.708,585,-290,804,976,7080,2929
2025-10-11 16:32:49.710,577,-300,796,427,8544,1831
2025-10-11 16:32:49.755,563,-311,798,61,8605,1220
2025-10-11 16:32:49.756,570,-330,799,1159,8483,1281
2025-10-11 16:32:49.757,568,-332,797,8178,10314,793
2025-10-11 16:32:49.804,584,-317,782,10986,17395,-366
2025-10-11 16:32:49.805,567,-294,769,11657,-32578,-1892
2025-10-11 16:32:49.853,562,-288,790,8789,-9750,-1098
2025-10-11 16:32:49.854,546,-304,801,12573,16983,-4760
2025-10-11 16:32:49.855,532,-319,809,17639,-17425,-1892
2025-10-11 16:32:49.902,503,-326,815,27526,24933,11779
2025-10-11 16:32:49.903,528,-337,846,-26901,12315,29968
2025-10-11 16:32:49.951,381,-217,846,-5234,-10863,23315
2025-10-11 16:32:49.961,223,-321,896,-3098,-8910,15808
2025-10-11 16:32:49.961,29,-248,996,-6882,11704,18188
2025-10-11 16:32:50.000,-130,-219,1050,-2121,26825,18554
2025-10-11 16:32:50.001,-116,-145,1035,-10971,-11077,10131
2025-10-11 16:32:50.048,-133,-122,1003,-26291,29495,6713
2025-10-11 16:32:50.049,-166,-86,1024,25207,13321,5371
2025-10-11 16:32:50.097,-212,-80,1031,11474,-5539,1159
2025-10-11 16:32:50.098,-230,-78,1000,-488,-22751,915
2025-10-11 16:32:50.098,-250,-135,1006,-4699,24353,-793
2025-10-11 16:32:50.145,-217,-126,977,-732,8850,-2014
2025-10-11 16:32:50.146,-221,-113,980,1098,-1525,-1647
2025-10-11 16:32:50.194,-199,-91,967,-5065,-3784,610
2025-10-11 16:32:50.195,-183,-129,986,-4638,-2746,-1220
2025-10-11 16:32:50.195,-182,-135,980,-1586,-2380,-427
2025-10-11 16:32:50.246,-182,-138,976,-915,-2441,-732
2025-10-11 16:32:50.247,-187,-122,975,183,-3173,-915
2025-10-11 16:32:50.295,-193,-110,970,-305,-4699,-2502
2025-10-11 16:32:50.295,-189,-113,969,-1831,-5981,-2319
2025-10-11 16:32:50.296,-182,-127,980,-671,-7019,-2929
2025-10-11 16:32:50.340,-178,-120,985,427,-6958,-3540
2025-10-11 16:32:50.341,-175,-124,993,-1464,-6530,-4516
2025-10-11 16:32:50.389,-175,-129,994,488,-4882,-2929
2025-10-11 16:32:50.390,-175,-131,1002,-3112,-5004,-2624
2025-10-11 16:32:50.438,-179,-160,1017,-549,-4577,-3417
2025-10-11 16:32:50.439,-169,-132,1009,1831,-5187,-2136
2025-10-11 16:32:50.439,-172,-129,1011,-427,-6591,-3601
2025-10-11 16:32:50.487,-169,-136,1010,-1098,-7263,-3662
2025-10-11 16:32:50.488,-162,-137,1009,-1525,-7751,-3173
2025-10-11 16:32:50.540,-155,-142,1010,-366,-5737,-1953
2025-10-11 16:32:50.540,-152,-137,1013,-305,-4272,-793
2025-10-11 16:32:50.540,-157,-138,1019,-549,-3479,-854
2025-10-11 16:32:50.587,-157,-127,1020,-1831,-4150,-488
2025-10-11 16:32:50.589,-154,-125,1021,-3295,-4577,-1647
2025-10-11 16:32:50.682,-150,-143,1021,-793,-4699,-2014
2025-10-11 16:32:50.683,-137,-142,1021,427,-3723,-1281
2025-10-11 16:32:50.683,-141,-129,1017,1770,-2258,-793
2025-10-11 16:32:50.684,-142,-118,1022,-2319,-488,-1281
2025-10-11 16:32:50.731,-140,-139,1019,-1892,183,-2258
2025-10-11 16:32:50.731,-137,-139,1014,61,427,-2258
2025-10-11 16:32:50.732,-151,-130,1004,-549,-549,-2746
2025-10-11 16:32:50.732,-139,-130,999,-2014,-427,-2380
2025-10-11 16:32:50.779,-140,-142,995,-671,-915,-1647
2025-10-11 16:32:50.780,-146,-135,993,-1953,-549,-2624
2025-10-11 16:32:50.833,-142,-160,997,183,-183,-2868
2025-10-11 16:32:50.833,-142,-153,990,1098,-244,-2685
2025-10-11 16:32:50.878,-145,-145,987,1342,-305,-3112
2025-10-11 16:32:50.880,-140,-139,981,-488,-610,-2075
2025-10-11 16:32:50.880,-148,-155,990,-427,-1037,-2319
2025-10-11 16:32:50.926,-149,-150,992,61,-2197,-2014
2025-10-11 16:32:50.926,-153,-147,991,-1708,-3845,-1892
2025-10-11 16:32:50.974,-134,-167,986,-1770,-3723,-2319
2025-10-11 16:32:50.975,-146,-158,998,976,-3356,-915
2025-10-11 16:32:50.975,-134,-153,998,-122,-2075,-1647
2025-10-11 16:32:51.023,-135,-156,995,1403,-793,-1464
2025-10-11 16:32:51.024,-140,-152,994,1281,-366,-610
2025-10-11 16:32:51.072,-142,-149,1003,610,-854,-183
2025-10-11 16:32:51.072,-144,-139,1007,-1403,-1892,183
2025-10-11 16:32:51.073,-138,-142,1009,-1647,-1037,1342
2025-10-11 16:32:51.128,-128,-140,1013,-671,1770,2014
2025-10-11 16:32:51.128,-128,-144,1017,915,4638,1098
2025-10-11 16:32:51.170,-137,-138,1018,1586,4821,-183
2025-10-11 16:32:51.171,-145,-135,1003,-1525,976,-427
2025-10-11 16:32:51.171,-141,-151,997,-1281,-854,-427
2025-10-11 16:32:51.218,-133,-146,999,244,-1037,-915
2025-10-11 16:32:51.219,-138,-146,1001,671,-549,-1770
2025-10-11 16:32:51.268,-140,-153,1001,671,-915,-1586
2025-10-11 16:32:51.268,-138,-151,995,793,-976,-732
2025-10-11 16:32:51.316,-140,-146,1002,122,-1220,-915
2025-10-11 16:32:51.317,-144,-143,1002,-244,-1953,-976
2025-10-11 16:32:51.318,-134,-150,1003,-305,-1892,-1464
2025-10-11 16:32:51.365,-131,-150,1002,183,-1403,-1770
2025-10-11 16:32:51.365,-135,-155,1004,61,-1037,-1586
2025-10-11 16:32:51.432,-139,-152,1001,305,-1281,-610
2025-10-11 16:32:51.432,-136,-147,1000,-488,-1037,-671
2025-10-11 16:32:51.432,-135,-149,1000,-61,-1586,-1159
2025-10-11 16:32:51.468,-137,-149,998,-61,-2136,-1342
2025-10-11 16:32:51.468,-137,-151,998,-549,-2136,-1037
2025-10-11 16:32:51.515,-133,-156,998,61,-1953,-976
2025-10-11 16:32:51.515,-128,-159,994,1098,-2319,-1647
2025-10-11 16:32:51.560,-130,-151,992,1586,-2746,-1098
2025-10-11 16:32:51.560,-132,-144,998,366,-2563,-915
2025-10-11 16:32:51.561,-127,-141,1002,-1708,-1892,-366
2025-10-11 16:32:51.608,-127,-156,1004,-1159,-915,305
2025-10-11 16:32:51.609,-128,-153,1006,61,-610,244
2025-10-11 16:32:51.657,-127,-149,1000,-976,-976,-244
2025-10-11 16:32:51.658,-127,-156,999,-549,-1098,-671
2025-10-11 16:32:51.659,-131,-155,998,-366,-2197,-671
2025-10-11 16:32:51.705,-129,-157,998,-915,-3173,-732
2025-10-11 16:32:51.706,-127,-166,1005,1159,-3601,-1342
2025-10-11 16:32:51.760,-123,-157,1005,2136,-3173,-854
2025-10-11 16:32:51.760,-125,-151,1005,1159,-2441,-610
2025-10-11 16:32:51.760,-125,-158,1016,915,-2197,-61
2025-10-11 16:32:51.810,-116,-152,1012,549,-1770,122
2025-10-11 16:32:51.810,-121,-156,1015,305,-1708,-976
2025-10-11 16:32:51.852,-119,-155,1009,854,-2258,-427
2025-10-11 16:32:51.852,-114,-149,1006,671,-1342,0
2025-10-11 16:32:51.853,-112,-149,1009,-183,-305,0
2025-10-11 16:32:51.901,-112,-157,1007,427,488,305
2025-10-11 16:32:51.901,-116,-156,1011,1342,854,244
2025-10-11 16:32:51.952,-122,-140,1000,183,305,122
2025-10-11 16:32:51.952,-115,-153,998,-366,1159,732
2025-10-11 16:32:51.998,-110,-159,995,2136,4150,1892
2025-10-11 16:32:51.999,-124,-155,1004,3356,5432,3112
2025-10-11 16:32:51.999,-132,-142,1010,2075,4455,2502
2025-10-11 16:32:52.047,-139,-135,1007,793,1586,549
2025-10-11 16:32:52.054,-136,-148,1006,793,-1220,-854
2025-10-11 16:32:52.102,-126,-144,1002,1586,-1770,-610
2025-10-11 16:32:52.102,-119,-138,1004,1098,-549,-488
2025-10-11 16:32:52.102,-115,-151,1016,610,1281,-122
2025-10-11 16:32:52.144,-127,-153,1014,2746,671,-305
2025-10-11 16:32:52.145,-126,-144,1011,1403,-61,-305
2025-10-11 16:32:52.193,-130,-145,1011,610,-427,-427
2025-10-11 16:32:52.194,-122,-140,1011,366,-183,-671
2025-10-11 16:32:52.195,-132,-143,1000,-61,-305,-793
2025-10-11 16:32:52.242,-131,-153,1003,-61,-305,-427
2025-10-11 16:32:52.243,-129,-151,1003,488,-610,-488
2025-10-11 16:32:52.290,-121,-148,1003,793,-854,-1037
2025-10-11 16:32:52.291,-130,-148,1002,732,-793,-915
2025-10-11 16:32:52.346,-125,-150,1002,610,-793,-488
2025-10-11 16:32:52.347,-119,-150,1001,976,-122,-183
2025-10-11 16:32:52.347,-124,-142,1002,915,61,-122
2025-10-11 16:32:52.394,-126,-147,1000,183,-244,244
2025-10-11 16:32:52.394,-127,-140,995,854,-427,-122
2025-10-11 16:32:52.437,-127,-145,1003,0,122,427
2025-10-11 16:32:52.438,-124,-147,1010,1098,549,61
2025-10-11 16:32:52.439,-125,-140,1003,183,427,-366
2025-10-11 16:32:52.485,-126,-152,997,-610,0,-244
2025-10-11 16:32:52.486,-134,-156,1005,305,-915,-122
2025-10-11 16:32:52.535,-125,-148,1004,1098,-1159,61
2025-10-11 16:32:52.535,-125,-143,1007,1037,-671,-671
2025-10-11 16:32:52.536,-129,-145,1000,366,-305,-366
2025-10-11 16:32:52.583,-121,-159,1001,2319,244,366
2025-10-11 16:32:52.584,-125,-141,1004,976,-549,0
2025-10-11 16:32:52.683,-130,-149,1009,793,-1831,-793
2025-10-11 16:32:52.683,-126,-144,1006,1953,-2807,-1098
2025-10-11 16:32:52.683,-121,-136,1005,915,-1525,-427
2025-10-11 16:32:52.683,-125,-145,1016,-61,-305,-61
2025-10-11 16:32:52.730,-126,-152,1019,1281,-488,244
2025-10-11 16:32:52.730,-118,-134,1010,1586,-366,366
2025-10-11 16:32:52.731,-125,-123,1011,671,-610,-366
2025-10-11 16:32:52.731,-121,-130,1015,-854,-854,-1098
2025-10-11 16:32:52.778,-117,-145,1017,1159,-488,-1037
2025-10-11 16:32:52.779,-117,-135,1011,1342,366,-305
2025-10-11 16:32:52.827,-124,-133,1010,-61,305,-549
2025-10-11 16:32:52.828,-125,-138,1009,-305,-1220,-1342
2025-10-11 16:32:52.876,-120,-144,1008,305,-2441,-1708
2025-10-11 16:32:52.876,-116,-139,1004,1037,-1525,-1342
2025-10-11 16:32:52.877,-113,-144,1009,671,671,-427
2025-10-11 16:32:52.926,-114,-147,1007,610,2197,122
2025-10-11 16:32:52.926,-121,-152,1005,1220,1708,366
2025-10-11 16:32:52.977,-128,-146,1005,976,488,1159
2025-10-11 16:32:52.978,-124,-146,1003,793,1464,2014
2025-10-11 16:32:52.978,-117,-139,1007,244,3540,2868
2025-10-11 16:32:53.022,-128,-132,998,-1770,4455,2502
2025-10-11 16:32:53.022,-139,-147,1004,-1953,2807,1953
2025-10-11 16:32:53.070,-144,-134,999,-366,-671,1770
2025-10-11 16:32:53.071,-131,-108,996,-2075,-3173,366
2025-10-11 16:32:53.168,-137,-93,995,-5676,-6958,-1831
2025-10-11 16:32:53.169,-143,-88,995,-11230,-11779,-2502
2025-10-11 16:32:53.169,-157,-86,1007,-16296,-21240,-1525
2025-10-11 16:32:53.170,-194,-90,1026,-24291,24582,1892
2025-10-11 16:32:53.219,-191,-151,1047,22202,-29556,427
2025-10-11 16:32:53.219,-16,-250,1066,9811,-5646,-7507
2025-10-11 16:32:53.219,23,-268,1052,29526,24795,-30273
2025-10-11 16:32:53.219,-39,-279,975,-21850,9841,24460
2025-10-11 16:32:53.268,68,-270,876,31235,-5052,-20080
2025-10-11 16:32:53.269,300,-329,830,20126,-21531,-8239
2025-10-11 16:32:53.314,368,-304,841,24521,-10118,-11840
2025-10-11 16:32:53.315,440,-331,797,17929,7705,-21606
2025-10-11 16:32:53.315,486,-294,779,9750,31875,-23254
2025-10-11 16:32:53.363,548,-278,781,6332,-580,-21972
2025-10-11 16:32:53.364,611,-337,791,16586,-8377,-1525
2025-10-11 16:32:53.412,562,-420,760,28793,15549,22155
2025-10-11 16:32:53.412,620,-439,763,-28442,23117,27832
2025-10-11 16:32:53.413,619,-430,758,-20935,25436,20812
2025-10-11 16:32:53.461,616,-397,738,-16235,27267,17211
2025-10-11 16:32:53.462,617,-369,726,-15686,-32714,14404
2025-10-11 16:32:53.511,626,-395,724,-13244,-24230,16967
2025-10-11 16:32:53.511,625,-403,715,-12451,-16723,21606
2025-10-11 16:32:53.512,632,-437,718,-12878,-13488,17944
2025-10-11 16:32:53.607,619,-439,711,-8239,-14587,15930
2025-10-11 16:32:53.608,641,-421,701,-4272,-8239,9887
2025-10-11 16:32:53.609,629,-448,699,-1647,-4150,7568
2025-10-11 16:32:53.656,624,-444,693,1708,-2624,7873
2025-10-11 16:32:53.657,627,-437,688,1342,793,5371
2025-10-11 16:32:53.657,613,-436,690,1708,-305,1159
2025-10-11 16:32:53.704,614,-419,687,2868,-1953,-488
2025-10-11 16:32:53.705,617,-418,680,3784,-1953,-2136
2025-10-11 16:32:53.705,616,-431,677,4699,305,-1708
2025-10-11 16:32:53.753,611,-428,678,5676,2502,305
2025-10-11 16:32:53.754,607,-419,678,4455,2014,915
2025-10-11 16:32:53.754,601,-411,678,3662,732,-366
2025-10-11 16:32:53.804,602,-401,686,3479,488,-3356
2025-10-11 16:32:53.804,593,-401,689,3723,-61,-4516
2025-10-11 16:32:53.852,602,-406,687,3906,-610,-4333
2025-10-11 16:32:53.852,609,-421,684,3967,732,-5126
2025-10-11 16:32:53.900,606,-426,690,3479,915,-4150
2025-10-11 16:32:53.900,616,-409,695,1770,1037,-1586
2025-10-11 16:32:53.900,612,-424,697,305,366,-1953
2025-10-11 16:32:53.948,615,-433,698,1464,-366,-1403
2025-10-11 16:32:53.949,615,-438,698,1831,-793,-2685
2025-10-11 16:32:53.998,613,-437,699,1892,-1647,-1831
2025-10-11 16:32:53.998,623,-422,699,1098,-244,-61
2025-10-11 16:32:53.999,617,-433,699,-183,244,793
2025-10-11 16:32:54.046,614,-446,697,1037,427,1403
2025-10-11 16:32:54.046,614,-435,695,1586,793,793
2025-10-11 16:32:54.105,606,-438,690,1892,915,-610
2025-10-11 16:32:54.105,606,-436,692,2685,0,-1403
2025-10-11 16:32:54.105,617,-436,691,3356,183,-1586
2025-10-11 16:32:54.144,609,-426,691,3662,549,-366
2025-10-11 16:32:54.144,608,-403,695,1770,244,1770
2025-10-11 16:32:54.192,607,-400,697,-610,-1281,2319
2025-10-11 16:32:54.193,606,-427,690,427,-793,427
2025-10-11 16:32:54.193,606,-421,691,2441,-1464,-1525
2025-10-11 16:32:54.241,607,-401,690,2197,-610,-1647
2025-10-11 16:32:54.241,609,-397,693,671,-854,-1403
2025-10-11 16:32:54.289,615,-416,690,61,-732,-1770
2025-10-11 16:32:54.290,611,-428,699,1342,-2197,-3662
2025-10-11 16:32:54.338,631,-429,703,2807,-1403,-4455
2025-10-11 16:32:54.339,632,-410,708,3479,976,-3906
2025-10-11 16:32:54.340,634,-411,707,3540,3784,-3295
2025-10-11 16:32:54.395,637,-427,715,8300,9277,-3967
2025-10-11 16:32:54.395,638,-428,718,14404,14221,-4577
2025-10-11 16:32:54.437,661,-401,722,17028,23681,-8483
2025-10-11 16:32:54.439,650,-394,733,20690,-25803,-13183
2025-10-11 16:32:54.439,633,-423,747,27099,-12497,-17456
2025-10-11 16:32:54.484,610,-422,758,-28427,-1083,-24230
2025-10-11 16:32:54.485,580,-418,760,-14877,5630,-30578
2025-10-11 16:32:54.533,550,-325,741,-13351,19485,-27160
2025-10-11 16:32:54.534,554,-322,783,-15244,-18707,-23559
2025-10-11 16:32:54.534,568,-318,785,-13046,22736,30014
2025-10-11 16:32:54.582,573,-336,811,26688,-27159,-30334
2025-10-11 16:32:54.583,364,-27,890,-5356,-5614,13366
2025-10-11 16:32:54.631,205,-192,907,-32578,-17882,-29404
2025-10-11 16:32:54.632,0,-317,994,-15671,15611,-26962
2025-10-11 16:32:54.632,-18,-284,1027,5203,-21804,25634
2025-10-11 16:32:54.687,-42,-117,1007,7034,17060,23193
2025-10-11 16:32:54.687,-177,-29,1003,-12619,-4669,32348
2025-10-11 16:32:54.730,-111,-53,1027,-24826,-27252,22888
2025-10-11 16:32:54.732,-167,-45,1006,22460,17349,14709
2025-10-11 16:32:54.777,-248,-65,1000,8300,-1083,10925
2025-10-11 16:32:54.778,-253,-77,1013,9887,-29160,7080
2025-10-11 16:32:54.778,-248,-61,999,11718,25146,6469
2025-10-11 16:32:54.825,-226,-44,980,11230,19348,8422
2025-10-11 16:32:54.826,-231,-46,981,2197,15991,8789
2025-10-11 16:32:54.875,-262,-56,998,-5065,10681,7202
2025-10-11 16:32:54.875,-270,-62,996,-6347,244,3356
2025-10-11 16:32:54.876,-236,-52,964,-8483,-4699,1953
2025-10-11 16:32:54.924,-227,-68,982,-2136,-4455,2075
2025-10-11 16:32:54.924,-215,-61,989,4028,244,2197
2025-10-11 16:32:54.979,-226,-50,998,3540,2685,122
2025-10-11 16:32:54.979,-245,-44,989,-427,-2197,-366
2025-10-11 16:32:54.980,-239,-50,985,-2929,-5798,244
2025-10-11 16:32:55.022,-235,-38,993,-5004,-8850,-549
2025-10-11 16:32:55.022,-219,-48,986,-5737,-8666,-1281
2025-10-11 16:32:55.070,-204,-70,990,-3112,-5676,-1525
2025-10-11 16:32:55.071,-216,-70,998,610,-3662,-1770
2025-10-11 16:32:55.071,-227,-61,1007,915,-4150,-1586
2025-10-11 16:32:55.118,-219,-46,997,-2441,-6103,-1342
2025-10-11 16:32:55.119,-216,-64,998,-4516,-7507,-1647
2025-10-11 16:32:55.167,-211,-74,1001,-2990,-7446,-732
2025-10-11 16:32:55.168,-206,-70,1001,-2990,-6774,-2197
2025-10-11 16:32:55.216,-207,-74,1003,-1708,-7446,-2685
2025-10-11 16:32:55.216,-205,-63,1000,-2990,-8300,-2807
2025-10-11 16:32:55.217,-203,-64,999,-3845,-8728,-2624
2025-10-11 16:32:55.267,-197,-77,1004,-3234,-8117,-2136
2025-10-11 16:32:55.267,-184,-84,1010,-244,-6347,-2258
2025-10-11 16:32:55.313,-189,-75,1008,0,-5493,-3295
2025-10-11 16:32:55.315,-192,-82,1000,-61,-5554,-2380
2025-10-11 16:32:55.316,-186,-83,1001,183,-5615,-1708
2025-10-11 16:32:55.362,-181,-80,1000,244,-5432,-1647
2025-10-11 16:32:55.363,-175,-80,1002,427,-2563,-732
2025-10-11 16:32:55.411,-182,-78,1007,-427,-854,-793
2025-10-11 16:32:55.411,-180,-76,1003,610,122,-488
2025-10-11 16:32:55.459,-187,-75,1005,-366,0,-793
2025-10-11 16:32:55.460,-191,-71,995,-1342,-1159,-915
2025-10-11 16:32:55.461,-187,-88,1002,-1220,-2624,-1892
2025-10-11 16:32:55.508,-175,-84,994,1159,-3295,-2014
2025-10-11 16:32:55.509,-177,-73,994,-122,-2868,-1831
2025-10-11 16:32:55.565,-173,-82,1001,-1342,-1953,-1037
2025-10-11 16:32:55.565,-173,-91,1004,-1098,-1831,-854
2025-10-11 16:32:55.565,-178,-91,1007,122,-2441,-610
2025-10-11 16:32:55.607,-174,-81,1002,-854,-3356,-1220
2025-10-11 16:32:55.607,-168,-90,997,488,-2807,-1953
2025-10-11 16:32:55.654,-173,-79,995,-61,-2380,-1464
2025-10-11 16:32:55.656,-181,-85,994,-915,-2075,-793
2025-10-11 16:32:55.656,-167,-93,1000,-549,-1525,-427
2025-10-11 16:32:55.703,-176,-86,1001,-488,-1708,-976
2025-10-11 16:32:55.704,-180,-88,1009,-1647,-2624,-854
2025-10-11 16:32:55.752,-181,-88,1006,-2136,-4150,-976
2025-10-11 16:32:55.752,-166,-97,1007,244,-3112,-1342
2025-10-11 16:32:55.753,-160,-89,1012,854,-854,-793
2025-10-11 16:32:55.800,-169,-96,1015,0,-854,-549
2025-10-11 16:32:55.829,-171,-89,1011,732,-2075,183
2025-10-11 16:32:55.856,-163,-77,1019,427,-2258,122
2025-10-11 16:32:55.856,-156,-68,1023,-488,-915,-671
2025-10-11 16:32:55.899,-159,-80,1022,-1037,122,-1647
2025-10-11 16:32:55.900,-168,-102,1024,61,0,-1159
2025-10-11 16:32:55.901,-162,-88,1020,305,-427,366
2025-10-11 16:32:55.947,-160,-83,1017,-305,-305,-427
2025-10-11 16:32:55.947,-161,-77,1006,-2014,244,-488
2025-10-11 16:32:55.996,-164,-81,998,-4638,61,-854
2025-10-11 16:32:55.997,-168,-86,999,-5554,-915,-976
2025-10-11 16:32:55.998,-166,-102,1000,-3662,-1770,-1281
2025-10-11 16:32:56.045,-160,-97,999,671,-1403,-1037
2025-10-11 16:32:56.046,-159,-77,998,671,122,-854
2025-10-11 16:32:56.093,-165,-89,1004,-732,244,-1342
2025-10-11 16:32:56.093,-169,-98,998,-1403,-671,-793
2025-10-11 16:32:56.122,-161,-92,991,-732,-1037,-305
2025-10-11 16:32:56.149,-163,-90,1001,-427,-915,-1525
2025-10-11 16:32:56.150,-167,-93,1002,549,-793,-1464
2025-10-11 16:32:56.191,-165,-97,1008,915,-1770,-2014
2025-10-11 16:32:56.192,-158,-92,1008,-610,-1831,-1953
2025-10-11 16:32:56.239,-163,-103,1010,-976,-1647,-1525
2025-10-11 16:32:56.241,-161,-102,1014,183,-732,-427
2025-10-11 16:32:56.241,-160,-91,1018,-61,-244,-1037
2025-10-11 16:32:56.288,-166,-99,1013,-549,-732,-2258
2025-10-11 16:32:56.288,-164,-105,1007,-122,-1342,-1708
2025-10-11 16:32:56.337,-157,-99,1006,-122,-1464,-1342
2025-10-11 16:32:56.337,-154,-102,1005,-793,-915,-1892
2025-10-11 16:32:56.338,-155,-108,997,-1098,-488,-1464
2025-10-11 16:32:56.414,-157,-118,998,427,-1159,-793
2025-10-11 16:32:56.414,-161,-102,1008,1464,-2502,-366
2025-10-11 16:32:56.441,-151,-89,1005,183,-2563,-1220
2025-10-11 16:32:56.441,-153,-100,999,-1342,-1708,-1037
2025-10-11 16:32:56.441,-152,-109,1001,-1037,-1037,-915
2025-10-11 16:32:56.484,-150,-105,1001,-2014,-915,-122
2025-10-11 16:32:56.485,-156,-96,991,-2258,-1586,-671
2025-10-11 16:32:56.532,-154,-89,990,-3845,-2319,-1586
2025-10-11 16:32:56.533,-153,-93,989,-6469,-2319,-1953
2025-10-11 16:32:56.535,-157,-114,1007,-5065,-2563,-1342
2025-10-11 16:32:56.581,-150,-110,1015,-732,-1525,-2929
2025-10-11 16:32:56.582,-149,-85,1004,-2380,-793,-3967
2025-10-11 16:32:56.630,-154,-97,1001,-5371,-1159,-3723
2025-10-11 16:32:56.631,-154,-120,1011,-5798,-2807,-3662
2025-10-11 16:32:56.733,-151,-132,1021,-5493,-5371,-3295
2025-10-11 16:32:56.733,-143,-133,1015,-2380,-6530,-2014
2025-10-11 16:32:56.733,-128,-122,1013,-244,-4638,-1525
2025-10-11 16:32:56.733,-120,-105,1006,-1464,-671,-1464
2025-10-11 16:32:56.733,-142,-122,1011,-488,1037,-1770
2025-10-11 16:32:56.780,-147,-132,1007,183,1098,-1342
2025-10-11 16:32:56.780,-152,-133,1006,1342,-1159,-1525
2025-10-11 16:32:56.780,-143,-123,1003,-488,-2136,-1647
2025-10-11 16:32:56.827,-140,-129,999,-1342,-2014,-1098
2025-10-11 16:32:56.827,-146,-134,1005,-1647,-2014,-915
2025-10-11 16:32:56.873,-141,-135,1003,-488,-2258,-854
2025-10-11 16:32:56.874,-136,-128,1000,-61,-2502,-1281
2025-10-11 16:32:56.875,-139,-127,1002,-1281,-2380,-1342
2025-10-11 16:32:56.922,-141,-133,1005,-1770,-3601,-915
2025-10-11 16:32:56.922,-136,-142,1009,-427,-4272,-488
2025-10-11 16:32:56.970,-124,-133,1006,976,-2807,-122
2025-10-11 16:32:56.971,-129,-126,1009,122,-305,488
2025-10-11 16:32:57.019,-131,-127,1011,-549,-488,488
2025-10-11 16:32:57.020,-135,-133,1008,-244,-1647,244
2025-10-11 16:32:57.020,-137,-128,1013,915,-2685,366
2025-10-11 16:32:57.075,-131,-116,1014,488,-1831,122
2025-10-11 16:32:57.075,-124,-122,1018,549,-122,-610
2025-10-11 16:32:57.119,-127,-129,1014,244,732,-610
2025-10-11 16:32:57.121,-132,-137,1011,549,-61,122
2025-10-11 16:32:57.121,-132,-126,1004,793,-488,793
2025-10-11 16:32:57.166,-123,-121,1003,1159,488,488
2025-10-11 16:32:57.167,-127,-125,1005,1403,854,61
2025-10-11 16:32:57.214,-133,-128,1003,61,-549,-61
2025-10-11 16:32:57.215,-129,-125,1004,-1037,-2075,488
2025-10-11 16:32:57.215,-120,-114,1000,-2990,-1037,488
2025-10-11 16:32:57.264,-127,-124,1013,-4333,183,366
2025-10-11 16:32:57.264,-134,-135,1013,-4150,305,244
2025-10-11 16:32:57.312,-138,-150,1012,-671,-1159,122
2025-10-11 16:32:57.313,-138,-125,1008,-549,-3051,244
2025-10-11 16:32:57.313,-139,-118,1013,-4699,-5371,-854
2025-10-11 16:32:57.364,-133,-128,1014,-8300,-8972,-1770
2025-10-11 16:32:57.364,-127,-149,1003,-4333,-11596,-1342
2025-10-11 16:32:57.410,-116,-147,1013,-3051,-11962,-1159
2025-10-11 16:32:57.410,-108,-133,1010,-3295,-12268,-1647
2025-10-11 16:32:57.459,-107,-123,1018,-8056,-14587,-1770
2025-10-11 16:32:57.459,-117,-125,1028,-14526,-21240,-3967
2025-10-11 16:32:57.460,-125,-100,1040,31418,27512,-11901
2025-10-11 16:32:57.507,-166,-86,1062,5295,-2457,-19409
2025-10-11 16:32:57.507,-116,-127,1049,-21378,22735,-26794
2025-10-11 16:32:57.556,-46,-226,1022,-19302,-10956,-17395
2025-10-11 16:32:57.556,79,-267,976,3891,27236,-25878
2025-10-11 16:32:57.557,79,-317,979,32578,7094,24521
2025-10-11 16:32:57.604,281,-323,888,23727,10940,-32409
2025-10-11 16:32:57.605,348,-318,860,20248,26870,-14160
2025-10-11 16:32:57.662,421,-370,841,28305,-14924,-3356
2025-10-11 16:32:57.662,455,-386,824,-29968,335,1159
2025-10-11 16:32:57.662,494,-335,777,26352,16632,10192
2025-10-11 16:32:57.703,510,-337,781,14694,29632,9765
2025-10-11 16:32:57.704,497,-413,754,14023,-31326,4272
2025-10-11 16:32:57.751,491,-418,734,20859,31951,9887
2025-10-11 16:32:57.751,569,-440,717,25864,-24368,18005
2025-10-11 16:32:57.800,606,-425,703,-32226,3098,18493
2025-10-11 16:32:57.801,598,-459,680,32394,13657,22277
2025-10-11 16:32:57.801,610,-490,666,-25329,22079,19592
2025-10-11 16:32:57.848,612,-504,653,-15441,30441,18981
2025-10-11 16:32:57.849,642,-486,654,-6774,-23742,16235
2025-10-11 16:32:57.897,634,-464,653,-244,-8544,17150
2025-10-11 16:32:57.927,601,-451,648,-2014,-2502,18981
2025-10-11 16:32:57.927,590,-488,647,-7324,-4516,20263
2025-10-11 16:32:57.995,577,-538,638,-9277,-17211,17822
2025-10-11 16:32:57.997,615,-525,623,-9399,-23071,16540
2025-10-11 16:32:57.997,630,-530,622,-6469,-16174,14465
2025-10-11 16:32:57.998,635,-534,629,-5920,-9521,12390
2025-10-11 16:32:58.043,612,-544,626,-4089,-10253,10498
2025-10-11 16:32:58.043,616,-537,616,-3234,-11779,7812
2025-10-11 16:32:58.044,629,-538,611,-2380,-10559,5126
2025-10-11 16:32:58.092,633,-525,607,-854,-6530,4455
2025-10-11 16:32:58.092,628,-542,596,183,-1464,1647
2025-10-11 16:32:58.093,618,-569,606,3112,793,-3051
2025-10-11 16:32:58.141,607,-547,609,5859,-2502,-5493
2025-10-11 16:32:58.141,618,-520,600,5493,-5615,-6958
2025-10-11 16:32:58.215,629,-526,599,5371,-2685,-5737
2025-10-11 16:32:58.215,639,-528,607,5371,1464,-3540
2025-10-11 16:32:58.243,623,-511,607,4150,1953,-2197
2025-10-11 16:32:58.243,617,-499,604,1708,122,-1403
2025-10-11 16:32:58.243,620,-504,605,671,-1342,-2380
2025-10-11 16:32:58.287,621,-521,603,1464,-1647,-3295
2025-10-11 16:32:58.289,619,-517,612,3601,-61,-4333
2025-10-11 16:32:58.336,631,-504,613,4455,1281,-5676
2025-10-11 16:32:58.337,621,-509,612,5310,671,-8422
2025-10-11 16:32:58.337,622,-492,612,5126,-427,-9155
2025-10-11 16:32:58.384,632,-478,618,2868,-2502,-7934
2025-10-11 16:32:58.385,642,-476,609,-305,-1770,-5493
2025-10-11 16:32:58.433,641,-500,611,-1831,-732,-4516
2025-10-11 16:32:58.434,643,-520,612,-915,-1098,-4150
2025-10-11 16:32:58.435,654,-534,609,1403,-1220,-6835
2025-10-11 16:32:58.508,654,-516,614,4516,793,-7507
2025-10-11 16:32:58.508,651,-492,620,4943,2502,-7385
2025-10-11 16:32:58.536,654,-502,619,4638,3662,-6164
2025-10-11 16:32:58.536,661,-514,622,5981,6835,-5187
2025-10-11 16:32:58.536,667,-523,628,8361,12023,-5493
2025-10-11 16:32:58.580,664,-517,632,13854,20019,-6713
2025-10-11 16:32:58.581,676,-488,641,18432,31188,-7141
2025-10-11 16:32:58.628,680,-486,655,24841,-18967,-7690
2025-10-11 16:32:58.629,658,-467,669,-32211,687,-6347
2025-10-11 16:32:58.677,602,-418,674,-29404,21072,-3417
2025-10-11 16:32:58.677,557,-410,691,-29037,-31707,-5065
2025-10-11 16:32:58.678,510,-378,740,10925,-20233,-5187
2025-10-11 16:32:58.726,527,-450,770,24658,-17730,-16845
2025-10-11 16:32:58.727,496,-417,760,29724,-22735,-24841
2025-10-11 16:32:58.802,432,-390,775,26489,-30487,-20141
2025-10-11 16:32:58.802,403,-405,805,30090,28458,-7629
2025-10-11 16:32:58.802,494,-412,803,-2853,32380,1525
2025-10-11 16:32:58.829,358,-286,868,-9689,-28579,15014
2025-10-11 16:32:58.829,281,-338,875,-19882,-23818,7263
2025-10-11 16:32:58.873,211,-290,896,-27695,-19607,9887
2025-10-11 16:32:58.875,81,-305,946,30639,-31875,19104
2025-10-11 16:32:58.875,-1,-311,964,31433,15961,19592
2025-10-11 16:32:58.921,-43,-317,1007,26184,-12298,19653
2025-10-11 16:32:58.922,-59,-352,1000,31433,23941,12268
2025-10-11 16:32:58.969,-95,-322,956,-19272,2518,11169
2025-10-11 16:32:58.970,-92,-272,969,-19760,-11642,8544
2025-10-11 16:32:59.019,-120,-190,986,-24826,-16769,3723
2025-10-11 16:32:59.020,-141,-183,989,27526,-24887,1708
2025-10-11 16:32:59.020,-156,-203,982,19226,32714,1281
2025-10-11 16:32:59.094,-142,-244,990,27587,30944,5432
2025-10-11 16:32:59.094,-161,-224,1001,31677,32653,5981
2025-10-11 16:32:59.121,-201,-154,1026,30639,26245,2014
2025-10-11 16:32:59.121,-203,-104,984,16784,18615,549
2025-10-11 16:32:59.121,-196,-141,984,7690,13244,-549
2025-10-11 16:32:59.165,-197,-168,997,10498,10070,-427
2025-10-11 16:32:59.167,-192,-156,998,15563,9826,2746
2025-10-11 16:32:59.213,-205,-126,997,10681,8422,-671
2025-10-11 16:32:59.214,-219,-113,996,6225,3540,-4699
2025-10-11 16:32:59.214,-204,-104,978,2868,-305,-4577
2025-10-11 16:32:59.262,-187,-128,983,4577,1831,-1892
2025-10-11 16:32:59.262,-186,-140,998,5737,5187,-610
2025-10-11 16:32:59.311,-199,-143,1001,9826,5249,-366
2025-10-11 16:32:59.311,-206,-119,994,10803,3967,-244
2025-10-11 16:32:59.387,-225,-82,986,4577,-610,-2319
2025-10-11 16:32:59.387,-208,-91,984,-3112,-3112,-2441
2025-10-11 16:32:59.387,-194,-132,995,-1464,-1708,122
2025-10-11 16:32:59.414,-194,-141,1009,4089,671,-488
2025-10-11 16:32:59.414,-203,-117,998,6958,1403,-183
2025-10-11 16:32:59.458,-210,-116,1002,5554,976,-1586
2025-10-11 16:32:59.459,-218,-94,992,976,-2685,-2868
2025-10-11 16:32:59.460,-206,-112,996,-2807,-3540,-1403
2025-10-11 16:32:59.506,-196,-125,1001,-2258,-2868,-488
2025-10-11 16:32:59.506,-193,-130,1006,1464,0,366
2025-10-11 16:32:59.554,-201,-117,1009,2868,2075,244
2025-10-11 16:32:59.555,-216,-119,1006,1586,976,-976
2025-10-11 16:32:59.556,-211,-115,994,-1464,-3051,-1037
2025-10-11 16:32:59.603,-198,-113,988,-4272,-4272,-1770
2025-10-11 16:32:59.604,-189,-133,994,-1708,-2319,-1098
2025-10-11 16:32:59.679,-199,-118,1001,305,-1159,-976
2025-10-11 16:32:59.679,-204,-121,992,-671,-915,-1342
2025-10-11 16:32:59.680,-205,-110,991,-1098,-2563,-1770
2025-10-11 16:32:59.707,-197,-111,987,-4211,-4272,-2746
2025-10-11 16:32:59.707,-187,-137,992,-1464,-3356,-2014
2025-10-11 16:32:59.750,-187,-126,996,1098,-1098,-1037
2025-10-11 16:32:59.752,-194,-123,992,-1708,-488,-1770
2025-10-11 16:32:59.798,-196,-129,989,-3662,-4882,-2807
2025-10-11 16:32:59.799,-187,-138,993,-1159,-4699,-1098
2025-10-11 16:32:59.799,-179,-127,996,549,-2563,-427
2025-10-11 16:32:59.847,-176,-124,1005,183,305,-305
2025-10-11 16:32:59.847,-185,-124,997,1220,1342,61
2025-10-11 16:32:59.896,-195,-126,997,-305,1159,-305
2025-10-11 16:32:59.896,-199,-130,995,-1037,-1037,-366
2025-10-11 16:32:59.897,-193,-131,997,-1037,-2685,-671
2025-10-11 16:32:59.973,-185,-121,998,-854,-2441,-1037
2025-10-11 16:32:59.973,-181,-119,997,-854,-1525,-1464
2025-10-11 16:33:00.000,-183,-133,1000,61,-1525,-1892
2025-10-11 16:33:00.000,-190,-135,1000,793,-1586,-610
2025-10-11 16:33:00.000,-181,-127,996,915,-1037,-549
2025-10-11 16:33:00.043,-187,-121,1001,793,-549,-671
2025-10-11 16:33:00.045,-192,-125,1004,-61,-1159,-1770
2025-10-11 16:33:00.092,-183,-129,995,0,-1586,-1953
2025-10-11 16:33:00.092,-180,-130,995,-549,-1586,-2014
2025-10-11 16:33:00.093,-182,-125,995,-1647,-1281,-1342
2025-10-11 16:33:00.139,-183,-136,1003,-2441,-1770,-1892
2025-10-11 16:33:00.140,-175,-141,997,-1770,-1647,-1892
2025-10-11 16:33:00.188,-178,-140,988,-1220,-610,-1525
2025-10-11 16:33:00.189,-185,-132,984,-2197,-1037,-1647
2025-10-11 16:33:00.265,-187,-138,988,-2441,-1770,-2075
2025-10-11 16:33:00.265,-183,-138,991,-1403,-3051,-2746
2025-10-11 16:33:00.265,-182,-137,993,-1159,-3723,-2868
2025-10-11 16:33:00.292,-175,-138,995,-732,-2746,-2563
2025-10-11 16:33:00.292,-174,-135,1004,488,-1403,-2624
2025-10-11 16:33:00.335,-179,-133,1009,-122,-1159,-2807
2025-10-11 16:33:00.336,-180,-147,1009,-1342,-2197,-3112
2025-10-11 16:33:00.337,-173,-149,1007,-1037,-2136,-2014
2025-10-11 16:33:00.384,-164,-142,1012,-671,-610,-2685
2025-10-11 16:33:00.384,-172,-156,1004,-488,-610,-3051
2025-10-11 16:33:00.432,-171,-158,990,-488,-793,-1708
2025-10-11 16:33:00.433,-172,-150,987,-1525,-1037,-1159
2025-10-11 16:33:00.433,-177,-159,990,-732,-1525,-976
2025-10-11 16:33:00.481,-178,-157,995,1708,-2075,-854
2025-10-11 16:33:00.481,-176,-135,991,1525,-1770,-1342
2025-10-11 16:33:00.557,-173,-139,993,-488,-1525,-2624
2025-10-11 16:33:00.557,-177,-158,1002,244,-2075,-2502
2025-10-11 16:33:00.584,-171,-154,1000,-915,-2624,-1892
2025-10-11 16:33:00.584,-163,-156,992,-3234,-2075,-305
2025-10-11 16:33:00.584,-157,-183,1004,-793,-1770,610
2025-10-11 16:33:00.627,-163,-160,1005,1464,-1220,1525
2025-10-11 16:33:00.628,-163,-142,1006,732,61,1098
2025-10-11 16:33:00.676,-169,-140,1008,-610,0,488
2025-10-11 16:33:00.676,-167,-149,1004,-183,-1098,0
2025-10-11 16:33:00.677,-165,-144,999,671,-1831,122
2025-10-11 16:33:00.724,-166,-137,1004,244,-1464,610
2025-10-11 16:33:00.725,-154,-138,1007,-122,61,183
2025-10-11 16:33:00.773,-155,-139,1007,-1342,976,0
2025-10-11 16:33:00.774,-161,-148,998,-1586,305,488
2025-10-11 16:33:00.775,-164,-138,990,-976,-183,671
2025-10-11 16:33:00.824,-167,-132,992,-1220,-366,-122
2025-10-11 16:33:00.825,-159,-146,994,366,-183,-1037
2025-10-11 16:33:00.875,-156,-138,990,976,183,-1464
2025-10-11 16:33:00.875,-169,-137,988,-549,-549,-2624
2025-10-11 16:33:00.920,-169,-156,997,-915,-1708,-2197
2025-10-11 16:33:00.922,-157,-154,994,-366,-1892,-2014
2025-10-11 16:33:00.923,-162,-151,992,-1770,-2075,-2502
2025-10-11 16:33:00.968,-163,-157,979,-1159,-2746,-2197
2025-10-11 16:33:00.969,-161,-163,988,1159,-3479,-1647
2025-10-11 16:33:01.017,-156,-144,989,1098,-2746,-1770
2025-10-11 16:33:01.018,-152,-155,996,1159,-1159,-2441
2025-10-11 16:33:01.018,-155,-156,994,1342,-244,-2319
2025-10-11 16:33:01.066,-163,-161,1001,1220,-1220,-2197
2025-10-11 16:33:01.067,-159,-156,995,1525,-1892,-2441
2025-10-11 16:33:01.114,-159,-154,996,1525,-2197,-2990
2025-10-11 16:33:01.143,-151,-163,999,366,-1403,-2197
2025-10-11 16:33:01.143,-157,-167,1008,732,-854,-1586
2025-10-11 16:33:01.170,-159,-159,1007,1159,-671,-1586
2025-10-11 16:33:01.171,-158,-153,1005,915,-732,-2380
2025-10-11 16:33:01.213,-147,-165,1002,2136,-671,-2075
2025-10-11 16:33:01.214,-150,-161,1003,2624,-244,-1647
2025-10-11 16:33:01.214,-147,-147,1006,1586,-549,-1647
2025-10-11 16:33:01.261,-131,-134,1010,-427,-122,-3540
2025-10-11 16:33:01.262,-135,-150,1007,-610,-366,-5615
2025-10-11 16:33:01.309,-155,-154,997,-1281,-2197,-5493
2025-10-11 16:33:01.310,-161,-157,997,-1953,-3967,-2990
2025-10-11 16:33:01.358,-148,-155,1004,-976,-3601,-183
2025-10-11 16:33:01.359,-142,-144,997,122,-1159,-244
2025-10-11 16:33:01.359,-150,-130,1008,-2624,-122,-1586
2025-10-11 16:33:01.461,-152,-162,1003,-2197,-2441,-1708
2025-10-11 16:33:01.461,-153,-165,1002,-1037,-4760,-1770
2025-10-11 16:33:01.461,-156,-158,1008,-1220,-7812,-2197
2025-10-11 16:33:01.461,-156,-161,1004,-1708,-10742,-2502
2025-10-11 16:33:01.505,-138,-172,1002,1220,-9338,-1159
2025-10-11 16:33:01.506,-140,-177,1014,4455,-8605,-2929
2025-10-11 16:33:01.507,-146,-191,1024,8178,-9826,-2868
2025-10-11 16:33:01.602,-145,-177,1019,11962,-13916,-3173
2025-10-11 16:33:01.603,-140,-145,1015,7934,-20019,-3845
2025-10-11 16:33:01.604,-139,-158,1018,4760,27939,-10375
2025-10-11 16:33:01.604,-125,-173,1027,915,11032,-13366
2025-10-11 16:33:01.651,-142,-185,1042,1892,-16312,-22705
2025-10-11 16:33:01.652,-120,-171,1028,-4516,9735,-27282
2025-10-11 16:33:01.652,-71,-206,1032,-4577,-26581,-19958
2025-10-11 16:33:01.653,-26,-201,986,13854,-8836,-29785
2025-10-11 16:33:01.725,125,-142,888,20629,18736,26901
2025-10-11 16:33:01.725,367,-136,834,12145,12938,9323
2025-10-11 16:33:01.753,374,-71,848,5920,29967,-381
2025-10-11 16:33:01.753,471,-78,817,-244,-20860,10117
2025-10-11 16:33:01.798,551,-114,814,-854,18752,-29296
2025-10-11 16:33:01.798,656,-44,775,-19287,-9614,-5737
2025-10-11 16:33:01.799,684,-55,774,-28808,21209,10559
2025-10-11 16:33:01.847,723,-92,752,20248,-30594,16540
2025-10-11 16:33:01.848,762,-190,741,20554,-12039,8911
2025-10-11 16:33:01.895,740,-258,749,-26794,5112,5493
2025-10-11 16:33:01.896,781,-220,740,-15686,20737,7812
2025-10-11 16:33:01.897,781,-176,726,-10070,-27526,5065
2025-10-11 16:33:01.945,745,-182,706,-7385,-15380,8483
2025-10-11 16:33:01.946,743,-198,696,-4211,-9277,11718
2025-10-11 16:33:02.048,730,-185,686,14587,-4455,11413
2025-10-11 16:33:02.048,744,-176,675,3173,2990,7873
2025-10-11 16:33:02.048,733,-200,689,6896,9094,1342
2025-10-11 16:33:02.048,700,-178,698,10253,5187,-1159
2025-10-11 16:33:02.048,713,-134,687,6286,-1525,-915
2025-10-11 16:33:02.100,718,-135,681,427,-2075,1403
2025-10-11 16:33:02.100,739,-184,692,-1892,-854,1159
2025-10-11 16:33:02.101,736,-192,688,549,122,1647
2025-10-11 16:33:02.139,731,-183,689,1098,122,-976
2025-10-11 16:33:02.139,741,-193,686,1037,-427,-3051
2025-10-11 16:33:02.187,739,-181,690,1525,-122,-2868
2025-10-11 16:33:02.188,741,-182,688,671,-122,-2075
2025-10-11 16:33:02.236,747,-210,685,2075,1159,-1708
2025-10-11 16:33:02.236,745,-208,686,5798,2258,-3784
2025-10-11 16:33:02.237,751,-179,686,7446,2807,-6835
2025-10-11 16:33:02.285,740,-177,685,7568,3601,-8911
2025-10-11 16:33:02.286,735,-171,692,6530,3051,-6958
2025-10-11 16:33:02.333,726,-175,688,5249,1892,-3723
2025-10-11 16:33:02.334,732,-158,687,915,1037,1281
2025-10-11 16:33:02.334,737,-182,685,-1953,1464,1770
2025-10-11 16:33:02.390,727,-205,689,793,1464,1586
2025-10-11 16:33:02.390,724,-170,691,3234,-244,-671
2025-10-11 16:33:02.431,731,-167,694,2258,-1098,-1403
2025-10-11 16:33:02.431,733,-177,698,3356,488,-2685
2025-10-11 16:33:02.479,741,-180,701,3173,1281,-2441
2025-10-11 16:33:02.480,727,-163,694,2075,1647,-488
2025-10-11 16:33:02.481,730,-162,691,732,1403,732
2025-10-11 16:33:02.529,729,-175,698,1159,549,-1647
2025-10-11 16:33:02.530,730,-172,699,2563,244,-1953
2025-10-11 16:33:02.578,727,-144,690,-122,610,-1953
2025-10-11 16:33:02.578,723,-163,686,-1953,0,-2319
2025-10-11 16:33:02.579,729,-181,696,244,366,-1525
2025-10-11 16:33:02.626,734,-172,693,305,1159,-2502
2025-10-11 16:33:02.627,727,-173,688,671,2319,-1831
2025-10-11 16:33:02.682,723,-171,691,1159,2563,-2136
2025-10-11 16:33:02.682,723,-166,699,244,488,-1708
2025-10-11 16:33:02.682,726,-171,692,-122,-610,-1342
2025-10-11 16:33:02.725,729,-160,695,122,854,-244
2025-10-11 16:33:02.725,735,-163,698,-793,1831,-1586
2025-10-11 16:33:02.772,729,-177,698,-305,2319,-2563
2025-10-11 16:33:02.773,731,-176,698,305,3479,-2075
2025-10-11 16:33:02.774,734,-154,699,-1647,6530,-1770
2025-10-11 16:33:02.821,741,-173,703,-1708,12390,-2075
2025-10-11 16:33:02.822,728,-187,723,-61,16235,-2014
2025-10-11 16:33:02.869,704,-177,724,2502,10009,-549
2025-10-11 16:33:02.870,699,-151,715,-732,2075,0
2025-10-11 16:33:02.918,728,-182,716,-2563,-305,-1159
2025-10-11 16:33:02.919,733,-195,718,671,3051,-1281
2025-10-11 16:33:02.920,719,-177,714,1831,4943,122
2025-10-11 16:33:02.980,705,-165,713,610,3601,2380
2025-10-11 16:33:02.980,707,-167,713,-427,305,3112
2025-10-11 16:33:03.018,710,-178,712,-244,671,2807
2025-10-11 16:33:03.019,705,-179,717,915,1037,2014
2025-10-11 16:33:03.019,700,-153,715,915,488,1525
2025-10-11 16:33:03.064,694,-157,710,-1220,-1586,61
2025-10-11 16:33:03.065,697,-172,707,-1525,-3540,732
2025-10-11 16:33:03.113,701,-161,701,-2380,-3601,3479
2025-10-11 16:33:03.114,698,-143,708,-5310,-2868,7141
2025-10-11 16:33:03.115,706,-163,717,-8239,-4150,8422
2025-10-11 16:33:03.162,716,-177,714,-8911,-5126,9582
2025-10-11 16:33:03.163,726,-200,711,-8789,-4699,5187
2025-10-11 16:33:03.211,732,-214,720,-1892,-2380,2380
2025-10-11 16:33:03.212,741,-209,724,1037,244,-61
2025-10-11 16:33:03.213,745,-188,727,1159,1770,-610
2025-10-11 16:33:03.261,754,-199,726,854,5249,-671
2025-10-11 16:33:03.262,756,-210,735,4394,10742,1098
2025-10-11 16:33:03.309,775,-219,737,10559,21240,3967
2025-10-11 16:33:03.309,776,-195,724,16235,-21042,9460
2025-10-11 16:33:03.357,742,-202,725,19348,8133,13854
2025-10-11 16:33:03.357,695,-235,739,24353,-29632,11291
2025-10-11 16:33:03.358,644,-214,740,27099,11261,9277
2025-10-11 16:33:03.406,536,-138,779,13244,-32119,15075
2025-10-11 16:33:03.406,506,-187,831,16113,-19973,9460
2025-10-11 16:33:03.455,520,-179,898,-18845,-14113,8117
2025-10-11 16:33:03.455,522,-132,805,-11765,-18004,3295
2025-10-11 16:33:03.456,359,-3,916,-1953,-670,17395
2025-10-11 16:33:03.503,83,-315,1004,10498,-30760,25878
2025-10-11 16:33:03.504,-79,-333,1065,-10300,-25771,12512
2025-10-11 16:33:03.560,-46,-138,1044,10513,-8514,6225
2025-10-11 16:33:03.560,-7,30,985,7645,-29815,-244
2025-10-11 16:33:03.560,-30,105,979,-18906,-25848,-305
2025-10-11 16:33:03.601,-121,-20,1038,3417,28580,-3662
2025-10-11 16:33:03.603,-276,-77,1070,16479,-2060,8483
2025-10-11 16:33:03.649,-214,-5,1021,32470,-30563,8300
2025-10-11 16:33:03.651,-146,103,982,5187,21972,0
2025-10-11 16:33:03.699,-207,10,998,-14465,4638,-5065
2025-10-11 16:33:03.699,-182,-48,972,-2685,-6835,-122
2025-10-11 16:33:03.700,-123,-3,983,7934,-2685,6286
2025-10-11 16:33:03.747,-119,0,998,6042,2014,1953
2025-10-11 16:33:03.748,-122,-42,1024,9155,9155,-5004
2025-10-11 16:33:03.797,-164,-13,1007,19714,7324,-4028
2025-10-11 16:33:03.798,-181,55,998,14526,4089,-4394
2025-10-11 16:33:03.798,-159,65,1006,427,3234,-8422
2025-10-11 16:33:03.856,-158,-6,1007,-2136,4455,-8483
2025-10-11 16:33:03.856,-146,-26,1018,7141,7995,-8239
2025-10-11 16:33:03.895,-144,20,1007,9765,14770,-9887
2025-10-11 16:33:03.895,-200,27,1039,4760,13427,-12756
2025-10-11 16:33:03.896,-220,11,1007,2441,3479,-13732
2025-10-11 16:33:03.942,-166,16,1001,0,2197,-15319
2025-10-11 16:33:03.942,-160,-6,998,5126,6958,-16784
2025-10-11 16:33:03.991,-165,0,1007,6286,15563,-14648
2025-10-11 16:33:03.991,-200,-7,1025,6225,12145,-12512
2025-10-11 16:33:04.040,-224,27,1020,3417,4516,-12268
2025-10-11 16:33:04.040,-201,49,985,-2624,610,-13366
2025-10-11 16:33:04.041,-191,23,987,-4638,1586,-16296
2025-10-11 16:33:04.089,-189,0,998,-1464,5554,-15686
2025-10-11 16:33:04.090,-214,-12,1000,2014,4211,-11657
2025-10-11 16:33:04.139,-218,7,1009,1586,488,-9460
2025-10-11 16:33:04.139,-209,42,1004,-366,-1770,-10375
2025-10-11 16:33:04.139,-208,29,994,-3906,-3906,-8666
2025-10-11 16:33:04.187,-193,11,999,-7019,-3662,-8972
2025-10-11 16:33:04.188,-206,-20,997,-3479,-4150,-3112
2025-10-11 16:33:04.234,-196,3,992,244,-4821,2014
2025-10-11 16:33:04.235,-197,30,995,-2807,-5249,1403
2025-10-11 16:33:04.236,-186,0,996,-3173,-5187,915
2025-10-11 16:33:04.283,-183,8,1004,-1892,-4577,-244
2025-10-11 16:33:04.284,-184,11,1003,-3112,-3723,-1403
2025-10-11 16:33:04.332,-192,-2,1001,-3845,-3234,-427
2025-10-11 16:33:04.332,-182,-19,1019,-2685,-2014,-854
2025-10-11 16:33:04.333,-194,-1,1016,-793,-4211,-1647
2025-10-11 16:33:04.381,-193,-9,1016,-976,-9887,-5371
2025-10-11 16:33:04.381,-161,-16,1003,-1831,-10559,-4699
2025-10-11 16:33:04.432,-167,-26,1019,-2197,-8789,-4333
2025-10-11 16:33:04.432,-174,-16,1007,-3234,-7568,-2014
2025-10-11 16:33:04.479,-176,-15,1009,-5249,-7751,122
2025-10-11 16:33:04.479,-177,-14,1012,-6652,-12329,-3051
2025-10-11 16:33:04.480,-186,-12,1005,-10070,-19409,-5676
2025-10-11 16:33:04.527,-183,-19,995,-13427,-28015,-6713
2025-10-11 16:33:04.528,-154,-38,981,-16296,-30578,-5798
2025-10-11 16:33:04.576,-99,-56,996,-13610,-23376,-5126
2025-10-11 16:33:04.576,-84,-67,999,-7324,-7446,-4028
2025-10-11 16:33:04.577,-111,-55,1012,3540,-4211,-1831
2025-10-11 16:33:04.624,-121,-17,1009,1403,-5615,-1098
2025-10-11 16:33:04.625,-113,-23,1008,-4333,-8483,-1647
2025-10-11 16:33:04.673,-98,-38,1004,-6958,-8422,1464
2025-10-11 16:33:04.674,-73,-62,1013,-5798,-4272,3906
2025-10-11 16:33:04.674,-91,-69,1036,-2136,244,4272
2025-10-11 16:33:04.724,-110,-51,1027,61,1281,5432
2025-10-11 16:33:04.725,-122,-47,1039,-427,-1953,4882
2025-10-11 16:33:04.772,-110,-36,1039,-1464,-6164,1892
2025-10-11 16:33:04.774,-104,-25,1035,-1953,-7812,-1098
2025-10-11 16:33:04.820,-104,-31,1032,-976,-7385,-1159
2025-10-11 16:33:04.821,-92,-41,1047,-122,-5676,-1464
2025-10-11 16:33:04.821,-89,-38,1041,1281,-4089,-1586
2025-10-11 16:33:04.868,-84,-39,1036,-915,-2990,-1586
2025-10-11 16:33:04.869,-88,-48,1038,-610,-1281,-2075
2025-10-11 16:33:04.917,-89,-53,1032,366,-2258,-1403
2025-10-11 16:33:04.918,-86,-44,1017,671,-1342,-1586
2025-10-11 16:33:04.918,-88,-55,1014,-244,-305,-366
2025-10-11 16:33:04.966,-88,-58,1013,-427,-610,-1037
2025-10-11 16:33:04.967,-94,-62,1018,1281,-1098,-305
2025-10-11 16:33:05.017,-90,-50,1011,1953,-915,-61
2025-10-11 16:33:05.017,-87,-48,1007,427,122,488
2025-10-11 16:33:05.017,-83,-67,1018,61,1708,854
2025-10-11 16:33:05.065,-96,-62,1022,2014,1403,976
2025-10-11 16:33:05.066,-93,-56,1013,976,366,1464
2025-10-11 16:33:05.112,-88,-60,1010,-1525,122,1953
2025-10-11 16:33:05.113,-91,-73,1014,-427,-1037,366
2025-10-11 16:33:05.113,-96,-58,1007,854,-2380,-183
2025-10-11 16:33:05.161,-92,-58,1006,-122,-4333,-976
2025-10-11 16:33:05.162,-100,-69,1012,-793,-7385,-427
2025-10-11 16:33:05.210,-91,-62,1017,-2685,-8605,1342
2025-10-11 16:33:05.210,-68,-52,1015,-5004,-6225,1892
2025-10-11 16:33:05.258,-67,-62,1018,-5981,-2624,1708
2025-10-11 16:33:05.259,-79,-81,1023,-2014,-1037,1342
2025-10-11 16:33:05.260,-81,-73,1024,1464,-1037,1037
2025-10-11 16:33:05.311,-84,-55,1023,1342,-2075,1342
2025-10-11 16:33:05.311,-78,-49,1026,-244,-2502,671
2025-10-11 16:33:05.356,-75,-53,1031,-1770,-2868,-549
2025-10-11 16:33:05.358,-79,-73,1026,-61,-2502,-366
2025-10-11 16:33:05.358,-69,-73,1033,1098,-2380,671
2025-10-11 16:33:05.405,-73,-53,1035,1037,-732,1708
2025-10-11 16:33:05.405,-70,-55,1037,-122,122,1708
2025-10-11 16:33:05.454,-65,-68,1034,0,610,854
2025-10-11 16:33:05.454,-75,-69,1029,549,-122,732
2025-10-11 16:33:05.455,-76,-60,1021,366,-915,1403
2025-10-11 16:33:05.502,-73,-53,1017,61,-1708,1220
2025-10-11 16:33:05.503,-75,-55,1013,-671,-2624,854
2025-10-11 16:33:05.551,-71,-67,1014,-183,-2929,366
2025-10-11 16:33:05.552,-75,-66,1020,366,-3662,366
2025-10-11 16:33:05.553,-65,-62,1017,-122,-3601,1770
2025-10-11 16:33:05.605,-56,-66,1022,-793,-1037,2014
2025-10-11 16:33:05.605,-66,-66,1020,488,-183,915
2025-10-11 16:33:05.649,-69,-62,1012,1647,122,549
2025-10-11 16:33:05.651,-74,-56,1012,732,-915,488
2025-10-11 16:33:05.697,-71,-63,1020,-610,-2136,1098
2025-10-11 16:33:05.697,-66,-70,1031,-854,-2685,1525
2025-10-11 16:33:05.698,-63,-64,1031,-366,-2136,2136
2025-10-11 16:33:05.746,-59,-63,1030,-610,-427,2807
2025-10-11 16:33:05.747,-66,-65,1031,-427,305,3112
2025-10-11 16:33:05.794,-71,-60,1033,-1037,-15258,5981
2025-10-11 16:33:05.795,-79,-55,1031,-3906,-2685,8239
2025-10-11 16:33:05.796,-59,-60,1040,-7019,-4211,5554
2025-10-11 16:33:05.843,-57,-59,1029,-8544,-4455,1098
2025-10-11 16:33:05.844,-64,-88,1026,-5371,-3906,305
2025-10-11 16:33:05.894,-68,-98,1038,-305,-5554,-976
2025-10-11 16:33:05.894,-63,-83,1036,-183,-8666,-1403
2025-10-11 16:33:05.903,-68,-66,1026,-3784,-12634,-549
2025-10-11 16:33:05.941,-78,-69,1024,-7568,-20141,793
2025-10-11 16:33:05.942,-107,-99,1049,-6469,29343,-61
2025-10-11 16:33:05.990,-126,-154,1114,-9826,29815,4516
2025-10-11 16:33:05.990,-196,-112,1064,-5187,-27802,12756
2025-10-11 16:33:06.038,-121,-61,916,-4028,22154,-32150
2025-10-11 16:33:06.039,190,21,803,-29663,26594,-27390
2025-10-11 16:33:06.039,385,17,866,2792,16035,2502
2025-10-11 16:33:06.087,525,-95,773,3464,-28322,30258
2025-10-11 16:33:06.088,547,-253,672,21957,-15321,29770
2025-10-11 16:33:06.136,683,-251,675,-26550,-25193,-11901
2025-10-11 16:33:06.137,845,-251,668,-5920,-763,-2014
2025-10-11 16:33:06.137,770,-143,729,-5371,-15335,2746
2025-10-11 16:33:06.193,772,-132,744,-6591,27817,15686
2025-10-11 16:33:06.193,750,-149,737,-6347,31540,15869
2025-10-11 16:33:06.234,742,-162,718,-9948,29648,9521
2025-10-11 16:33:06.235,775,-194,699,-8483,-27099,6713
2025-10-11 16:33:06.236,789,-212,698,-3784,-10498,4821
2025-10-11 16:33:06.282,770,-214,704,1403,-305,2319
2025-10-11 16:33:06.282,761,-208,693,1342,3662,1037
2025-10-11 16:33:06.331,739,-218,683,1464,4394,-1708
2025-10-11 16:33:06.331,730,-227,676,2380,1403,-976
2025-10-11 16:33:06.379,733,-208,672,1647,-366,-671
2025-10-11 16:33:06.380,745,-213,677,732,-1281,244
2025-10-11 16:33:06.381,749,-204,677,2197,3662,488
2025-10-11 16:33:06.428,734,-180,683,1098,4943,427
2025-10-11 16:33:06.457,734,-198,676,1953,5798,-854
2025-10-11 16:33:06.484,721,-202,680,2075,5371,-1098
2025-10-11 16:33:06.484,730,-199,675,2075,2441,-854
2025-10-11 16:33:06.484,719,-168,672,1831,3906,488
2025-10-11 16:33:06.527,724,-176,676,-1831,3295,-488
2025-10-11 16:33:06.527,718,-215,671,1403,1586,-5187
2025-10-11 16:33:06.575,720,-196,676,4455,3356,-3540
2025-10-11 16:33:06.576,733,-181,688,976,-15441,-4089
2025-10-11 16:33:06.576,728,-213,683,793,61,-366
2025-10-11 16:33:06.623,742,-187,686,-1464,427,1708
2025-10-11 16:33:06.624,724,-191,687,-854,1647,549
2025-10-11 16:33:06.672,731,-187,698,-1831,2075,1281
2025-10-11 16:33:06.673,728,-236,690,915,244,-4455
2025-10-11 16:33:06.673,723,-218,690,4577,-183,-4760
2025-10-11 16:33:06.749,739,-207,689,5004,305,-6530
2025-10-11 16:33:06.749,728,-213,689,7446,1098,-10253
2025-10-11 16:33:06.776,728,-197,685,10070,2746,-12329
2025-10-11 16:33:06.776,725,-177,696,10009,3723,-14770
2025-10-11 16:33:06.821,719,-152,707,6347,1953,-10192
2025-10-11 16:33:06.823,736,-158,703,2563,671,-7141
2025-10-11 16:33:06.824,743,-172,699,183,0,-2136
2025-10-11 16:33:06.868,738,-171,696,-854,-61,488
2025-10-11 16:33:06.868,736,-181,693,-1159,-183,1159
2025-10-11 16:33:06.964,735,-176,689,610,1403,366
2025-10-11 16:33:06.965,729,-175,690,2258,1708,-1770
2025-10-11 16:33:06.966,730,-164,695,2563,183,-2319
2025-10-11 16:33:06.967,733,-151,696,2441,-305,-1953
2025-10-11 16:33:07.013,739,-156,698,488,-610,-1586
2025-10-11 16:33:07.014,740,-163,703,1342,732,-1098
2025-10-11 16:33:07.015,740,-164,702,1525,671,-2014
2025-10-11 16:33:07.015,727,-152,700,1403,366,-1159
2025-10-11 16:33:07.065,732,-154,699,671,671,-427
2025-10-11 16:33:07.066,734,-158,700,854,2990,122
2025-10-11 16:33:07.112,724,-158,706,1342,4028,-732
2025-10-11 16:33:07.112,712,-149,700,1586,1892,-1037
2025-10-11 16:33:07.160,720,-154,699,488,305,-2136
2025-10-11 16:33:07.162,723,-151,705,0,-854,-2136
2025-10-11 16:33:07.162,732,-170,703,183,-1098,-2624
2025-10-11 16:33:07.259,734,-177,701,1831,1525,-1220
2025-10-11 16:33:07.259,728,-152,702,1281,1525,-488
2025-10-11 16:33:07.260,728,-157,699,-244,1159,-305
2025-10-11 16:33:07.307,734,-192,706,1708,1525,-2868
2025-10-11 16:33:07.307,731,-174,709,4150,1403,-2624
2025-10-11 16:33:07.309,732,-147,706,3601,1770,-3173
2025-10-11 16:33:07.309,725,-153,701,2075,1281,-2868
2025-10-11 16:33:07.384,734,-180,709,3845,1586,-4333
2025-10-11 16:33:07.385,748,-165,718,6774,3662,-4943
2025-10-11 16:33:07.385,749,-139,719,7568,7995,-3784
2025-10-11 16:33:07.425,739,-132,725,3417,11657,-488
2025-10-11 16:33:07.425,731,-147,725,2197,8544,1647
2025-10-11 16:33:07.458,746,-160,733,6835,10803,4333
2025-10-11 16:33:07.459,775,-125,733,7812,27160,10681
2025-10-11 16:33:07.459,794,-120,732,8911,-4501,11047
2025-10-11 16:33:07.501,736,-130,741,15747,30777,9582
2025-10-11 16:33:07.502,697,-135,752,23681,275,11596
2025-10-11 16:33:07.549,666,-127,741,23681,32441,10864
2025-10-11 16:33:07.550,595,-113,754,28381,5662,10498
2025-10-11 16:33:07.598,564,-150,804,-2243,2382,13793
2025-10-11 16:33:07.599,494,93,915,27221,-10664,-23972
2025-10-11 16:33:07.600,206,-69,963,-8850,-16951,-16769
2025-10-11 16:33:07.647,-29,-304,1057,9948,-8116,-28000
2025-10-11 16:33:07.647,-157,-217,1012,-16281,-11489,30090
2025-10-11 16:33:07.700,-129,-37,984,-18356,15473,24353
2025-10-11 16:33:07.700,-176,25,1035,29174,-12664,9643
2025-10-11 16:33:07.700,-305,9,1053,16113,12527,4943
2025-10-11 16:33:07.750,-264,-24,961,12145,-18539,2502
2025-10-11 16:33:07.750,-218,-8,978,1708,29846,2136
2025-10-11 16:33:07.794,-228,-15,977,610,18798,-4394
2025-10-11 16:33:07.794,-221,-36,971,6958,7446,-1770
2025-10-11 16:33:07.795,-219,-26,971,6774,427,671
2025-10-11 16:33:07.842,-197,-53,975,12207,183,976
2025-10-11 16:33:07.843,-195,-12,992,14953,1464,1159
2025-10-11 16:33:07.891,-207,25,996,6164,1770,-793
2025-10-11 16:33:07.892,-206,2,990,-1464,3051,-122
2025-10-11 16:33:07.939,-220,-19,1000,-2380,-122,610
2025-10-11 16:33:07.940,-222,-11,990,-488,-4028,122
2025-10-11 16:33:07.941,-212,-1,988,183,-6713,793
2025-10-11 16:33:07.994,-203,0,980,671,-4638,-1159
2025-10-11 16:33:07.994,-204,-6,996,732,-2380,-1037
2025-10-11 16:33:08.040,-219,-12,1007,1220,-4089,183
2025-10-11 16:33:08.040,-219,-5,1009,-1586,-7141,427
2025-10-11 16:33:08.041,-200,-15,999,-61,-8850,-610
2025-10-11 16:33:08.086,-192,-1,994,488,-9887,-915
2025-10-11 16:33:08.087,-186,-6,998,-183,-7324,-1098
2025-10-11 16:33:08.134,-182,-23,1015,366,-5615,-671
2025-10-11 16:33:08.135,-183,-8,1010,-1403,-5126,-366
2025-10-11 16:33:08.136,-186,-25,1018,-1037,-5187,-427
2025-10-11 16:33:08.183,-179,-19,1008,-61,-6469,1525
2025-10-11 16:33:08.184,-171,-15,995,1647,-4577,2807
2025-10-11 16:33:08.232,-163,-17,1000,3723,-2014,4089
2025-10-11 16:33:08.233,-171,0,1012,5554,610,2624
2025-10-11 16:33:08.234,-185,14,1010,2746,-427,1037
2025-10-11 16:33:08.283,-185,-9,1003,2563,-1586,671
2025-10-11 16:33:08.283,-183,-4,1001,4821,-2746,1220
2025-10-11 16:33:08.333,-174,6,1010,5554,-2258,1220
2025-10-11 16:33:08.333,-175,19,1016,4394,-1281,0
2025-10-11 16:33:08.427,-169,14,1012,976,-671,-1220
2025-10-11 16:33:08.428,-175,-3,1017,549,122,244
2025-10-11 16:33:08.428,-177,0,1021,671,305,305
2025-10-11 16:33:08.429,-185,-2,1021,183,122,-366
2025-10-11 16:33:08.476,-185,4,1016,-549,-2075,-1403
2025-10-11 16:33:08.477,-168,-6,1007,610,-976,-610
2025-10-11 16:33:08.477,-167,4,1014,488,1525,-610
2025-10-11 16:33:08.525,-176,-6,1014,-183,2014,-610
2025-10-11 16:33:08.525,-181,-13,1019,549,671,61
2025-10-11 16:33:08.526,-188,7,1009,0,-2075,-122
2025-10-11 16:33:08.576,-173,8,1007,-1708,-2685,-61
2025-10-11 16:33:08.576,-167,2,1026,-976,-1281,-1403
2025-10-11 16:33:08.576,-168,-4,1018,-671,732,-1342
2025-10-11 16:33:08.625,-180,-12,1013,-488,244,122
2025-10-11 16:33:08.625,-172,-4,1009,-244,-793,732
2025-10-11 16:33:08.671,-169,2,1009,-854,-1342,-61
2025-10-11 16:33:08.672,-166,0,1007,-671,-793,-671
2025-10-11 16:33:08.673,-172,-3,1007,-1098,-366,-610
2025-10-11 16:33:08.720,-176,-10,1003,-122,-549,61
2025-10-11 16:33:08.720,-180,1,1009,183,-1892,915
2025-10-11 16:33:08.768,-174,11,1001,-915,-2502,732
2025-10-11 16:33:08.769,-171,-4,1009,-976,-1525,-1281
2025-10-11 16:33:08.817,-174,-5,1010,-488,-671,-244
2025-10-11 16:33:08.818,-176,-11,1009,-976,-488,122
2025-10-11 16:33:08.818,-184,-10,1011,-976,-2868,1098
2025-10-11 16:33:08.868,-173,3,1000,-1525,-5371,793
2025-10-11 16:33:08.868,-166,-1,998,-1831,-5187,366
2025-10-11 16:33:08.915,-160,-9,1006,-549,-3845,488
2025-10-11 16:33:08.916,-151,-2,1001,-488,-1464,305
2025-10-11 16:33:08.916,-165,-10,1003,-793,-1037,-671
2025-10-11 16:33:08.963,-174,-9,1001,305,-3723,-305
2025-10-11 16:33:08.964,-168,8,1002,-915,-6530,-976
2025-10-11 16:33:09.013,-150,-7,1009,-244,-5371,-2075
2025-10-11 16:33:09.014,-146,-9,1010,305,-2563,-1831
2025-10-11 16:33:09.014,-147,-15,1012,-671,-427,-549
2025-10-11 16:33:09.061,-167,-23,1019,1281,-2197,-122
2025-10-11 16:33:09.062,-156,-11,1007,366,-3967,-122
2025-10-11 16:33:09.109,-153,-13,1010,1770,-4760,-244
2025-10-11 16:33:09.110,-146,-8,1018,3479,-3295,-122
2025-10-11 16:33:09.162,-146,3,1023,2319,-1708,-671
2025-10-11 16:33:09.162,-146,-7,1021,610,-732,-1098
2025-10-11 16:33:09.162,-151,-15,1023,1708,-732,15441
2025-10-11 16:33:09.208,-156,-3,1030,610,-1403,-61
2025-10-11 16:33:09.208,-142,0,1024,915,0,-549
2025-10-11 16:33:09.256,-148,-6,1024,1770,671,-610
2025-10-11 16:33:09.257,-149,-7,1021,2624,854,0
2025-10-11 16:33:09.257,-148,-6,1021,2563,183,183
2025-10-11 16:33:09.305,-148,0,1020,2624,-1037,305
2025-10-11 16:33:09.305,-147,13,1022,1770,-1281,0
2025-10-11 16:33:09.354,-147,15,1020,976,-305,-976
2025-10-11 16:33:09.354,-149,9,1027,854,976,-1464
2025-10-11 16:33:09.355,-146,5,1016,915,1220,-2136
2025-10-11 16:33:09.402,-154,0,1012,-976,0,-1403
2025-10-11 16:33:09.403,-147,-12,1006,-244,0,-671
2025-10-11 16:33:09.452,-141,0,1005,671,488,-1159
2025-10-11 16:33:09.453,-149,3,996,549,-305,-2319
2025-10-11 16:33:09.501,-153,-6,997,-1525,-1770,-2502
2025-10-11 16:33:09.501,-155,-18,1004,-2014,-2746,-2502
2025-10-11 16:33:09.502,-153,-13,1009,-1586,-3723,-1953
2025-10-11 16:33:09.548,-146,-16,1007,-1220,-2563,-1647
2025-10-11 16:33:09.549,-149,-16,1013,0,-1098,-1586
2025-10-11 16:33:09.597,-154,-12,1011,-610,-549,-1159
2025-10-11 16:33:09.598,-150,-30,1012,366,-1220,-732
2025-10-11 16:33:09.599,-151,-8,1003,-732,-2563,-183
2025-10-11 16:33:09.646,-148,-15,1010,-1770,-2746,-488
2025-10-11 16:33:09.647,-144,-18,1018,61,-1892,-122
2025-10-11 16:33:09.695,-146,-3,1015,-671,-1525,-61
2025-10-11 16:33:09.696,-142,-14,1013,-1770,-1464,-427
2025-10-11 16:33:09.697,-139,-21,1008,0,-1892,-427
2025-10-11 16:33:09.754,-135,-19,1007,854,-2502,305
2025-10-11 16:33:09.754,-139,-19,1018,915,-2868,-183
2025-10-11 16:33:09.793,-139,-11,1024,793,-3662,-15563
2025-10-11 16:33:09.793,-129,-11,1021,1647,-1953,-244
2025-10-11 16:33:09.793,-129,-2,1023,793,244,-1159
2025-10-11 16:33:09.841,-142,-20,1017,-305,61,-915
2025-10-11 16:33:09.843,-137,-26,1007,1098,-732,793
2025-10-11 16:33:09.890,-139,0,1009,1586,-1037,1342
2025-10-11 16:33:09.890,-140,17,1018,244,-915,427
2025-10-11 16:33:09.938,-131,2,1026,122,-183,-1281
2025-10-11 16:33:09.939,-137,-12,1029,1281,122,-427
2025-10-11 16:33:09.940,-140,-5,1026,549,-366,122
2025-10-11 16:33:09.987,-130,-1,1027,61,-122,915
2025-10-11 16:33:09.988,-131,4,1027,61,549,-793
2025-10-11 16:33:10.045,-143,-1,1024,-1098,427,-1037
2025-10-11 16:33:10.045,-141,-16,1036,-610,488,-671
2025-10-11 16:33:10.045,-129,-7,1031,976,1770,-732
2025-10-11 16:33:10.085,-140,-1,1025,183,1953,-732
2025-10-11 16:33:10.087,-142,-8,1021,-1770,1464,-1220
2025-10-11 16:33:10.133,-137,-17,1021,-915,854,-793
2025-10-11 16:33:10.134,-130,-4,1019,-1159,1953,-122
2025-10-11 16:33:10.135,-138,-5,1006,-2014,3417,-610
2025-10-11 16:33:10.182,-143,-17,1003,-1647,2319,-549
2025-10-11 16:33:10.183,-151,-4,998,-2990,-976,-488
2025-10-11 16:33:10.231,-142,-11,1003,-4455,-976,-1586
2025-10-11 16:33:10.232,-138,-18,996,-4028,-671,-1708
2025-10-11 16:33:10.280,-143,-20,994,-3906,-1464,-732
2025-10-11 16:33:10.281,-144,-15,994,-4089,-3723,-244
2025-10-11 16:33:10.281,-143,-1,995,-5554,-7202,-610
2025-10-11 16:33:10.336,-151,1,1001,-7141,-12268,-1831
2025-10-11 16:33:10.336,-174,6,1018,-10986,-23315,-3540
2025-10-11 16:33:10.379,-181,64,1037,-26306,19150,-7629
2025-10-11 16:33:10.380,-246,104,1049,9018,-22537,-8056
2025-10-11 16:33:10.380,-184,-33,989,-9354,-27497,2746
2025-10-11 16:33:10.426,-20,-174,978,5661,11123,305
2025-10-11 16:33:10.427,101,-219,987,27695,-15550,-9643
2025-10-11 16:33:10.475,297,-164,974,-30639,18858,32700
2025-10-11 16:33:10.476,314,-40,916,-2701,23131,19150
2025-10-11 16:33:10.476,366,-154,815,-32364,28563,21408
2025-10-11 16:33:10.524,438,-311,724,32440,13731,-30090
2025-10-11 16:33:10.524,563,-410,737,-14542,23985,-21911
2025-10-11 16:33:10.572,807,-467,740,22690,-26642,-23254
2025-10-11 16:33:10.573,763,-275,729,-732,3159,3906
2025-10-11 16:33:10.573,660,-138,773,-21545,-21667,23132
2025-10-11 16:33:10.623,671,-279,758,-29479,-21911,19531
2025-10-11 16:33:10.623,609,-360,724,-29052,32333,-32089
2025-10-11 16:33:10.670,693,-378,703,-21301,31357,-30624
2025-10-11 16:33:10.670,692,-382,693,-10314,-25329,27404
2025-10-11 16:33:10.718,713,-385,698,-2746,-13366,21667
2025-10-11 16:33:10.719,676,-365,689,793,-4943,14404
2025-10-11 16:33:10.720,672,-358,696,2380,-2136,9216
2025-10-11 16:33:10.767,677,-372,694,4821,-2929,4150
2025-10-11 16:33:10.767,670,-356,695,7995,-5981,1708
2025-10-11 16:33:10.816,676,-322,690,6713,-5615,854
2025-10-11 16:33:10.817,691,-326,690,3112,-4516,1342
2025-10-11 16:33:10.818,687,-344,691,2258,-3295,1770
2025-10-11 16:33:10.865,683,-350,679,3234,-4211,2197
2025-10-11 16:33:10.865,693,-342,677,3784,-3051,1403
2025-10-11 16:33:10.920,684,-326,679,4882,488,854
2025-10-11 16:33:10.920,673,-310,681,4394,2258,610
2025-10-11 16:33:10.920,670,-310,680,2807,1831,488
2025-10-11 16:33:10.963,664,-321,677,2624,1037,732
2025-10-11 16:33:10.964,667,-325,680,1892,-1159,-915
2025-10-11 16:33:11.011,670,-322,680,2563,-2990,-1770
2025-10-11 16:33:11.012,676,-333,684,2929,-2685,-2868
2025-10-11 16:33:11.060,678,-330,685,3479,-1403,-2014
2025-10-11 16:33:11.061,675,-315,684,2868,-1647,-2075
2025-10-11 16:33:11.061,678,-326,683,2258,-2502,-3417
2025-10-11 16:33:11.109,684,-337,688,4272,-854,-4333
2025-10-11 16:33:11.110,682,-315,694,5920,732,-5981
2025-10-11 16:33:11.159,678,-307,695,5310,-427,-6896
2025-10-11 16:33:11.159,684,-306,696,3356,-1281,-4516
2025-10-11 16:33:11.159,694,-319,694,976,-793,-2075
2025-10-11 16:33:11.212,691,-331,687,0,244,183
2025-10-11 16:33:11.212,686,-332,689,610,1098,976
2025-10-11 16:33:11.256,683,-324,688,1403,1586,-915
2025-10-11 16:33:11.257,666,-317,685,1281,-671,-1831
2025-10-11 16:33:11.257,674,-317,682,305,-2990,-1281
2025-10-11 16:33:11.304,680,-308,688,-183,-3601,-122
2025-10-11 16:33:11.304,697,-319,689,-915,-976,-244
2025-10-11 16:33:11.352,688,-328,690,854,1281,-1953
2025-10-11 16:33:11.353,680,-296,685,1098,1586,-732
2025-10-11 16:33:11.354,671,-281,680,-2136,-305,305
2025-10-11 16:33:11.401,684,-314,676,-2746,-2197,-488
2025-10-11 16:33:11.402,683,-334,680,-549,-2014,-1098
2025-10-11 16:33:11.477,696,-316,690,244,-2136,-1586
2025-10-11 16:33:11.477,702,-309,691,-1464,-1770,-1281
2025-10-11 16:33:11.504,698,-324,691,-1586,427,-1403
2025-10-11 16:33:11.504,693,-332,696,-488,1831,-1098
2025-10-11 16:33:11.504,699,-324,701,-793,-244,-1953
2025-10-11 16:33:11.548,708,-330,698,-427,-305,-2807
2025-10-11 16:33:11.549,704,-332,693,549,1281,-2380
2025-10-11 16:33:11.596,708,-337,698,549,3234,-2136
2025-10-11 16:33:11.597,709,-353,700,3723,8361,-2136
2025-10-11 16:33:11.598,714,-342,703,7202,12756,-3540
2025-10-11 16:33:11.645,717,-328,706,10314,23193,-4516
2025-10-11 16:33:11.645,717,-299,715,11291,-26962,-6835
2025-10-11 16:33:11.693,711,-302,719,13122,-5539,-6591
2025-10-11 16:33:11.694,668,-312,726,21362,16190,-5859
2025-10-11 16:33:11.695,641,-284,730,30090,-25238,-2197
2025-10-11 16:33:11.770,594,-184,704,26794,3693,8605
2025-10-11 16:33:11.770,578,-206,788,8361,-21132,26672
2025-10-11 16:33:11.797,690,-444,770,-7919,-16661,9155
2025-10-11 16:33:11.797,591,-238,884,-16098,22539,31311
2025-10-11 16:33:11.840,135,-229,966,18066,-1142,-17197
2025-10-11 16:33:11.841,-168,-477,1070,-10666,-27342,-27573
2025-10-11 16:33:11.842,-99,-229,924,12894,-31569,16906
2025-10-11 16:33:11.888,48,-187,860,-2670,-20217,18066
2025-10-11 16:33:11.889,-95,-185,1125,5630,-26137,9033
2025-10-11 16:33:11.937,-498,55,1001,-26230,-17730,5126
2025-10-11 16:33:11.938,-426,-71,955,11718,-14938,4394
2025-10-11 16:33:11.939,-205,-125,905,9277,24414,5676
2025-10-11 16:33:11.987,-183,-115,942,14465,-32028,-13854
2025-10-11 16:33:11.987,-249,-82,980,14221,-28366,1525
2025-10-11 16:33:12.062,-303,-135,942,21728,30944,9277
2025-10-11 16:33:12.062,-329,-47,955,19897,17211,10192
2025-10-11 16:33:12.062,-330,0,955,4760,1403,4089
2025-10-11 16:33:12.089,-282,-32,943,-6958,-7019,-1220
2025-10-11 16:33:12.089,-246,-108,943,-610,1098,732
2025-10-11 16:33:12.133,-271,-93,971,8483,8544,1892
2025-10-11 16:33:12.134,-286,-48,978,7385,11230,488
2025-10-11 16:33:12.135,-330,-49,984,7446,4211,305
2025-10-11 16:33:12.181,-321,-40,989,7141,-4089,-793
2025-10-11 16:33:12.182,-302,-29,979,3479,-5737,-183
2025-10-11 16:33:12.230,-272,-60,1008,4394,-976,427
2025-10-11 16:33:12.230,-285,-36,1003,3356,488,-1342
2025-10-11 16:33:12.278,-309,-49,1000,-366,-4394,-3723
2025-10-11 16:33:12.279,-291,-66,979,122,-9460,-2807
2025-10-11 16:33:12.280,-259,-57,975,3479,-7141,-366
2025-10-11 16:33:12.330,-260,-31,980,2075,-2014,-2136
2025-10-11 16:33:12.330,-282,-52,981,0,-488,-2929
2025-10-11 16:33:12.376,-286,-75,981,1159,-1647,-1159
2025-10-11 16:33:12.381,-278,-48,977,976,-2624,-305
2025-10-11 16:33:12.382,-278,-49,983,-1892,-4577,-2868
2025-10-11 16:33:12.426,-278,-72,976,-793,-6286,-2380
2025-10-11 16:33:12.429,-255,-64,969,-122,-4455,-183
2025-10-11 16:33:12.474,-268,-52,974,-2807,-2685,-488
2025-10-11 16:33:12.475,-275,-74,976,-2136,-3662,-1098
2025-10-11 16:33:12.476,-267,-76,975,1220,-5371,915
2025-10-11 16:33:12.523,-263,-50,973,1159,-6042,-122
2025-10-11 16:33:12.524,-256,-52,974,-732,-4577,-1220
2025-10-11 16:33:12.571,-253,-63,981,-305,-976,-549
2025-10-11 16:33:12.572,-265,-53,980,-732,488,-976
2025-10-11 16:33:12.682,-284,-62,984,-366,-4455,-244
2025-10-11 16:33:12.682,-263,-55,988,0,-8117,-1037
2025-10-11 16:33:12.682,-251,-59,982,-61,-5676,-793
2025-10-11 16:33:12.682,-254,-60,982,-1892,-1892,-1770
2025-10-11 16:33:12.682,-262,-77,987,-854,-1525,-671
2025-10-11 16:33:12.723,-258,-66,982,122,-3662,122
2025-10-11 16:33:12.723,-254,-57,982,-61,-6103,-610
2025-10-11 16:33:12.723,-247,-61,981,-732,-6347,-976
2025-10-11 16:33:12.767,-244,-75,994,-1037,-4516,-1708
2025-10-11 16:33:12.770,-246,-81,996,549,-3540,-488
2025-10-11 16:33:12.815,-241,-75,993,1525,-2441,793
2025-10-11 16:33:12.816,-251,-52,994,366,-3112,244
2025-10-11 16:33:12.816,-240,-66,988,-732,-2685,-732
2025-10-11 16:33:12.864,-239,-73,987,610,-1525,-549
2025-10-11 16:33:12.865,-240,-73,987,1281,-488,-305
2025-10-11 16:33:12.912,-244,-70,985,1586,-488,244
2025-10-11 16:33:12.913,-260,-55,991,488,-3234,0
2025-10-11 16:33:12.914,-241,-61,987,427,-4760,366
2025-10-11 16:33:12.961,-230,-64,990,915,-2868,-244
2025-10-11 16:33:12.962,-231,-62,994,671,-366,-793
2025-10-11 16:33:13.016,-245,-65,993,244,-854,-183
2025-10-11 16:33:13.016,-241,-60,992,-61,-2807,-366
2025-10-11 16:33:13.061,-234,-62,988,488,-2746,-61
2025-10-11 16:33:13.061,-232,-58,990,1525,-1464,-244
2025-10-11 16:33:13.061,-237,-50,994,549,-488,-122
2025-10-11 16:33:13.107,-241,-54,991,61,-1037,-976
2025-10-11 16:33:13.108,-235,-62,989,-183,-1647,-915
2025-10-11 16:33:13.156,-236,-60,991,122,-2136,-854
2025-10-11 16:33:13.156,-234,-61,996,488,-1708,-1464
2025-10-11 16:33:13.157,-233,-63,993,305,-2014,-1220
2025-10-11 16:33:13.205,-230,-64,993,183,-1892,-244
2025-10-11 16:33:13.205,-233,-58,997,244,-1953,-427
2025-10-11 16:33:13.254,-232,-60,1003,0,-1770,-549
2025-10-11 16:33:13.254,-229,-65,999,366,-1586,-1037
2025-10-11 16:33:13.255,-227,-68,999,610,-1098,-671
2025-10-11 16:33:13.304,-228,-60,996,-366,-610,-244
2025-10-11 16:33:13.304,-232,-63,1001,-1342,-1037,-671
2025-10-11 16:33:13.353,-228,-61,993,-610,-1647,-1220
2025-10-11 16:33:13.354,-231,-55,985,-671,-1525,-1647
2025-10-11 16:33:13.354,-235,-63,990,-549,-1708,-1403
2025-10-11 16:33:13.400,-229,-69,996,122,-1708,-915
2025-10-11 16:33:13.400,-227,-65,993,-244,-854,-793
2025-10-11 16:33:13.449,-226,-65,991,-671,61,-732
2025-10-11 16:33:13.449,-229,-67,995,-732,-1037,-1831
2025-10-11 16:33:13.497,-224,-71,988,-793,-2563,-2136
2025-10-11 16:33:13.498,-220,-76,985,-1464,-2258,-1464
2025-10-11 16:33:13.498,-219,-88,994,-1159,-854,-366
2025-10-11 16:33:13.546,-223,-82,999,366,-244,305
2025-10-11 16:33:13.547,-227,-74,1001,122,-244,-610
2025-10-11 16:33:13.602,-229,-71,996,732,-1647,-1037
2025-10-11 16:33:13.603,-226,-69,992,-305,-1525,-976
2025-10-11 16:33:13.603,-220,-84,996,427,-244,305
2025-10-11 16:33:13.645,-231,-72,996,1098,-793,244
2025-10-11 16:33:13.645,-219,-69,994,1403,-1037,305
2025-10-11 16:33:13.692,-223,-63,994,976,-1037,-549
2025-10-11 16:33:13.692,-228,-60,995,488,-1220,-549
2025-10-11 16:33:13.694,-216,-63,997,244,-793,-1037
2025-10-11 16:33:13.741,-226,-66,999,-549,-1403,-1037
2025-10-11 16:33:13.742,-215,-72,998,-1159,-1281,-488
2025-10-11 16:33:13.790,-217,-61,992,-2990,-549,-793
2025-10-11 16:33:13.792,-221,-73,988,-3540,-244,-1037
2025-10-11 16:33:13.792,-224,-80,992,-1831,-1159,-1098
2025-10-11 16:33:13.867,-218,-81,992,-1403,-1525,-915
2025-10-11 16:33:13.867,-215,-77,993,-1037,-488,61
2025-10-11 16:33:13.894,-217,-71,993,-1892,610,-183
2025-10-11 16:33:13.894,-227,-82,996,-1831,305,-732
2025-10-11 16:33:13.937,-232,-93,1001,671,-2380,-1037
2025-10-11 16:33:13.938,-218,-77,998,1464,-2746,-244
2025-10-11 16:33:13.940,-219,-70,1003,-976,-1159,-549
2025-10-11 16:33:13.985,-215,-85,1004,-793,-122,-671
2025-10-11 16:33:13.986,-219,-88,970,671,-1281,-488
2025-10-11 16:33:14.034,-221,-73,996,-61,-2319,427
2025-10-11 16:33:14.034,-207,-67,997,-1159,-1525,-366
2025-10-11 16:33:14.035,-213,-76,1003,-915,-427,-854
2025-10-11 16:33:14.082,-218,-82,1005,-244,-183,-1037
2025-10-11 16:33:14.083,-214,-79,1002,-122,-427,-61
2025-10-11 16:33:14.159,-211,-76,1000,-1525,122,122
2025-10-11 16:33:14.159,-213,-82,997,-1892,244,244
2025-10-11 16:33:14.186,-215,-88,1001,610,0,366
2025-10-11 16:33:14.186,-213,-75,998,1831,-183,-183
2025-10-11 16:33:14.186,-218,-70,995,-976,-549,-1159
2025-10-11 16:33:14.229,-227,-92,1003,305,-1770,-610
2025-10-11 16:33:14.230,-206,-79,993,1281,-1464,-549
2025-10-11 16:33:14.277,-202,-87,994,488,-61,-1281
2025-10-11 16:33:14.278,-218,-91,993,732,-549,-549
2025-10-11 16:33:14.278,-222,-91,998,793,-1220,366
2025-10-11 16:33:14.326,-215,-74,1001,549,-1586,244
2025-10-11 16:33:14.327,-205,-74,995,-976,-671,-1037
2025-10-11 16:33:14.375,-208,-83,992,-1770,61,-1281
2025-10-11 16:33:14.375,-215,-84,982,-3784,366,-915
2025-10-11 16:33:14.376,-221,-86,987,-5554,-1159,-305
2025-10-11 16:33:14.450,-209,-101,994,-2868,-1464,-854
2025-10-11 16:33:14.450,-208,-96,991,1342,-1159,-671
2025-10-11 16:33:14.478,-211,-79,984,1037,-793,-793
2025-10-11 16:33:14.478,-217,-88,989,-244,-793,-793
2025-10-11 16:33:14.478,-213,-91,994,122,-1281,-305
2025-10-11 16:33:14.522,-216,-92,1004,1342,-2014,-122
2025-10-11 16:33:14.522,-207,-80,1000,1159,-1403,-244
2025-10-11 16:33:14.570,-206,-83,1001,732,-427,-915
2025-10-11 16:33:14.570,-211,-86,999,244,-671,-915
2025-10-11 16:33:14.618,-214,-87,1007,-915,-1708,-366
2025-10-11 16:33:14.619,-196,-71,999,-4272,244,-1281
2025-10-11 16:33:14.620,-199,-79,988,-7690,1647,-1953
2025-10-11 16:33:14.667,-227,-116,994,-5310,122,-1647
2025-10-11 16:33:14.667,-217,-121,991,-671,-1403,-671
2025-10-11 16:33:14.742,-213,-92,997,1892,-1708,427
2025-10-11 16:33:14.743,-208,-81,999,549,-1220,-427
2025-10-11 16:33:14.743,-207,-85,1001,-732,-915,-488
2025-10-11 16:33:14.770,-206,-95,1010,-1159,-793,-610
2025-10-11 16:33:14.770,-204,-102,1002,-1525,-244,-366
2025-10-11 16:33:14.814,-208,-106,1005,549,0,244
2025-10-11 16:33:14.814,-206,-86,996,671,-549,-610
2025-10-11 16:33:14.817,-210,-93,994,-793,-1037,-1220
2025-10-11 16:33:14.863,-205,-105,994,915,-1098,-427
2025-10-11 16:33:14.863,-205,-95,997,1098,-549,-305
2025-10-11 16:33:14.911,-202,-94,993,-305,427,-122
2025-10-11 16:33:14.912,-208,-98,997,-244,427,427
2025-10-11 16:33:14.913,-213,-90,996,183,-610,-305
2025-10-11 16:33:14.960,-214,-95,998,-122,-1586,-1098
2025-10-11 16:33:14.961,-205,-99,997,0,-1281,-610
2025-10-11 16:33:15.034,-211,-96,998,-671,-671,-61
2025-10-11 16:33:15.034,-205,-100,998,-366,-1953,-122
2025-10-11 16:33:15.061,-207,-99,1006,-793,-2990,-488
2025-10-11 16:33:15.061,-211,-105,1003,-2014,-6103,-2502
2025-10-11 16:33:15.061,-229,-99,1009,-4028,-11779,-4577
2025-10-11 16:33:15.106,-234,-105,1012,-9094,-22460,-6591
2025-10-11 16:33:15.107,-238,-121,1021,-11779,27634,-9216
2025-10-11 16:33:15.155,-220,-120,1022,-15136,11276,-10253
2025-10-11 16:33:15.156,-201,-124,1018,-15563,-5875,-12207
2025-10-11 16:33:15.156,-179,-122,1035,-16418,-25894,-15441
2025-10-11 16:33:15.204,-142,-135,1044,-30883,-16633,-21667
2025-10-11 16:33:15.205,-119,-186,1020,-29541,5568,-19470
2025-10-11 16:33:15.253,-16,-137,971,-20629,21361,-28930
2025-10-11 16:33:15.253,144,-186,896,-6347,-23744,32516
2025-10-11 16:33:15.254,424,-147,818,-18615,31477,12863
2025-10-11 16:33:15.326,405,22,757,32455,-3053,7065
2025-10-11 16:33:15.326,529,-52,712,16098,31432,-27893
2025-10-11 16:33:15.353,725,-230,732,13596,30044,-8972
2025-10-11 16:33:15.354,781,-328,727,26169,-11124,-5554
2025-10-11 16:33:15.399,697,-339,787,-22766,-25329,9704
2025-10-11 16:33:15.400,620,-285,798,-15991,-19104,-30685
2025-10-11 16:33:15.401,578,-223,761,-21484,32455,31738
2025-10-11 16:33:15.447,601,-269,745,-23315,19699,19775
2025-10-11 16:33:15.448,640,-325,737,-16662,22324,9582
2025-10-11 16:33:15.496,684,-358,746,-3662,-25573,549
2025-10-11 16:33:15.497,678,-322,756,9399,-11169,-5371
2025-10-11 16:33:15.497,668,-274,752,10803,-7568,-6103
2025-10-11 16:33:15.545,665,-255,750,8728,-10742,-4943
2025-10-11 16:33:15.546,681,-260,733,4821,-13183,671
2025-10-11 16:33:15.620,697,-272,734,4394,-8239,1586
2025-10-11 16:33:15.620,701,-261,742,5615,549,2563
2025-10-11 16:33:15.620,698,-241,744,5187,1953,2014
2025-10-11 16:33:15.647,689,-248,740,4821,2319,1342
2025-10-11 16:33:15.647,685,-243,738,5676,2929,915
2025-10-11 16:33:15.692,672,-229,736,4211,1708,1464
2025-10-11 16:33:15.693,680,-237,739,2868,793,244
2025-10-11 16:33:15.740,676,-245,732,2929,1525,0
2025-10-11 16:33:15.741,669,-241,728,3417,2319,-427
2025-10-11 16:33:15.741,658,-236,721,1770,1159,-488
2025-10-11 16:33:15.788,662,-250,715,122,1708,-305
2025-10-11 16:33:15.789,653,-261,716,2136,2075,-976
2025-10-11 16:33:15.838,654,-260,720,1770,1586,-2075
2025-10-11 16:33:15.838,653,-267,724,2807,244,-2502
2025-10-11 16:33:15.839,660,-259,723,2075,0,-732
2025-10-11 16:33:15.919,660,-260,730,671,488,0
2025-10-11 16:33:15.919,658,-258,733,-305,-671,976
2025-10-11 16:33:15.939,669,-268,734,-244,183,732
2025-10-11 16:33:15.939,661,-282,736,2197,1953,-1159
2025-10-11 16:33:15.939,655,-273,738,4211,1220,-671
2025-10-11 16:33:16.032,666,-244,742,2502,-305,854
2025-10-11 16:33:16.033,677,-259,740,427,1098,427
2025-10-11 16:33:16.034,657,-276,735,2319,1220,1098
2025-10-11 16:33:16.034,665,-270,738,2685,1281,854
2025-10-11 16:33:16.081,665,-258,745,3295,1770,122
2025-10-11 16:33:16.081,667,-248,743,2197,2258,366
2025-10-11 16:33:16.082,669,-252,744,793,2075,-305
2025-10-11 16:33:16.130,665,-270,742,1953,2075,-488
2025-10-11 16:33:16.130,664,-253,740,2563,2197,1098
2025-10-11 16:33:16.178,661,-242,736,610,2075,1159
2025-10-11 16:33:16.179,663,-254,742,244,1342,671
2025-10-11 16:33:16.180,666,-264,741,366,1159,1159
2025-10-11 16:33:16.231,653,-245,735,122,1525,2014
2025-10-11 16:33:16.231,654,-252,737,-1037,1281,1647
2025-10-11 16:33:16.280,656,-260,738,122,1220,793
2025-10-11 16:33:16.280,651,-266,739,1159,671,-122
2025-10-11 16:33:16.280,645,-262,741,2502,244,-915
2025-10-11 16:33:16.326,653,-242,742,1464,-427,-183
2025-10-11 16:33:16.326,656,-258,737,1098,-427,-1892
2025-10-11 16:33:16.374,648,-258,736,1708,-732,-793
2025-10-11 16:33:16.375,650,-253,735,1464,-671,-305
2025-10-11 16:33:16.375,645,-248,735,-366,-1220,-183
2025-10-11 16:33:16.422,641,-262,732,-244,-1831,-488
2025-10-11 16:33:16.423,645,-259,737,366,-2502,122
2025-10-11 16:33:16.471,654,-251,738,-549,-1281,1403
2025-10-11 16:33:16.471,654,-246,736,-1403,-305,1953
2025-10-11 16:33:16.528,649,-264,733,-1403,1098,1281
2025-10-11 16:33:16.528,647,-279,741,610,183,-183
2025-10-11 16:33:16.528,654,-266,746,1953,-1708,-854
2025-10-11 16:33:16.569,661,-250,746,671,-2197,61
2025-10-11 16:33:16.570,667,-260,748,-427,-1525,854
2025-10-11 16:33:16.618,671,-267,745,244,549,183
2025-10-11 16:33:16.618,663,-272,741,1159,671,-671
2025-10-11 16:33:16.619,660,-267,746,1953,-61,-305
2025-10-11 16:33:16.667,670,-257,749,1342,-427,610
2025-10-11 16:33:16.667,675,-261,749,1037,488,183
2025-10-11 16:33:16.715,665,-268,749,2441,1464,-732
2025-10-11 16:33:16.716,660,-250,748,2624,1525,488
2025-10-11 16:33:16.716,669,-263,751,1831,1403,122
2025-10-11 16:33:16.764,669,-264,751,2258,1892,122
2025-10-11 16:33:16.764,670,-254,751,1220,2075,1586
2025-10-11 16:33:16.822,663,-259,745,-732,2258,1892
2025-10-11 16:33:16.823,642,-260,740,-1220,1831,3295
2025-10-11 16:33:16.862,646,-260,751,-1647,183,3601
2025-10-11 16:33:16.863,653,-260,746,-2014,-366,3417
2025-10-11 16:33:16.863,646,-274,742,-671,854,1098
2025-10-11 16:33:16.910,642,-277,741,1708,1831,610
2025-10-11 16:33:16.911,645,-260,739,1953,1953,549
2025-10-11 16:33:16.958,638,-245,740,1098,1403,854
2025-10-11 16:33:16.959,644,-250,741,-427,61,1464
2025-10-11 16:33:16.960,650,-264,741,-122,183,549
2025-10-11 16:33:17.008,642,-264,739,793,732,305
2025-10-11 16:33:17.009,639,-241,740,-366,1525,854
2025-10-11 16:33:17.056,640,-254,739,-1098,1037,61
2025-10-11 16:33:17.057,640,-276,737,427,1220,-1098
2025-10-11 16:33:17.058,635,-266,742,1403,-183,-1159
2025-10-11 16:33:17.108,643,-252,746,244,-1403,-183
2025-10-11 16:33:17.108,643,-259,740,-1098,-1403,-122
2025-10-11 16:33:17.154,642,-280,742,-305,-976,-793
2025-10-11 16:33:17.155,643,-267,747,671,-671,0
2025-10-11 16:33:17.156,647,-256,747,671,-793,-488
2025-10-11 16:33:17.203,647,-260,743,-305,-427,-488
2025-10-11 16:33:17.203,652,-276,744,244,0,-122
2025-10-11 16:33:17.251,648,-263,745,183,427,244
2025-10-11 16:33:17.252,642,-258,747,-854,61,1159
2025-10-11 16:33:17.301,652,-266,750,-1342,-915,1098
2025-10-11 16:33:17.301,659,-274,749,-183,-732,-671
2025-10-11 16:33:17.302,648,-271,744,549,0,-1037
2025-10-11 16:33:17.349,638,-268,744,61,427,-122
2025-10-11 16:33:17.349,642,-271,742,0,244,427
2025-10-11 16:33:17.447,640,-266,735,793,0,-183
2025-10-11 16:33:17.448,645,-269,735,1342,-732,-1953
2025-10-11 16:33:17.448,640,-269,734,915,-1220,-1586
2025-10-11 16:33:17.448,642,-264,739,366,-976,122
2025-10-11 16:33:17.495,652,-264,748,-488,-549,1098
2025-10-11 16:33:17.496,648,-271,749,-61,183,305
2025-10-11 16:33:17.497,647,-261,748,488,0,-244
2025-10-11 16:33:17.544,645,-262,744,-61,-854,-793
2025-10-11 16:33:17.544,649,-268,746,-61,-1464,-1342
2025-10-11 16:33:17.545,659,-268,749,-122,-549,-305
2025-10-11 16:33:17.592,659,-266,745,-488,610,122
2025-10-11 16:33:17.593,648,-267,742,-488,488,-427
2025-10-11 16:33:17.641,655,-282,747,549,-1220,-1159
2025-10-11 16:33:17.642,657,-275,747,366,-732,-671
2025-10-11 16:33:17.643,652,-270,747,366,-488,-305
2025-10-11 16:33:17.690,650,-266,741,-427,488,854
2025-10-11 16:33:17.701,647,-267,741,-671,1159,366
2025-10-11 16:33:17.740,640,-271,740,-549,-244,0
2025-10-11 16:33:17.741,643,-272,742,976,-610,-1037
2025-10-11 16:33:17.741,648,-252,747,671,-427,-488
2025-10-11 16:33:17.789,651,-258,745,-488,-244,-1037
2025-10-11 16:33:17.789,650,-264,746,-610,427,-610
2025-10-11 16:33:17.836,657,-274,745,488,1220,-2075
2025-10-11 16:33:17.837,649,-267,745,610,1403,-1770
2025-10-11 16:33:17.838,654,-267,750,-61,-244,-1403
2025-10-11 16:33:17.885,661,-270,750,-1037,-793,-1037
2025-10-11 16:33:17.886,661,-276,749,-1220,244,-610
2025-10-11 16:33:17.934,658,-277,751,-732,-61,-1098
2025-10-11 16:33:17.934,652,-277,750,-305,488,-366
2025-10-11 16:33:17.936,654,-271,751,-183,1403,183
2025-10-11 16:33:18.020,645,-263,749,-1464,1525,976
2025-10-11 16:33:18.020,654,-290,748,-61,2014,-244
2025-10-11 16:33:18.037,649,-278,745,2258,3845,183
2025-10-11 16:33:18.037,649,-256,749,1586,5432,2258
2025-10-11 16:33:18.037,650,-267,751,-671,7995,3173
2025-10-11 16:33:18.129,647,-294,763,2258,10864,1525
2025-10-11 16:33:18.129,658,-291,767,10559,16784,4394
2025-10-11 16:33:18.130,688,-246,754,8300,-26230,9094
2025-10-11 16:33:18.178,664,-282,763,10192,870,6713
2025-10-11 16:33:18.179,615,-304,760,17333,27908,5065
2025-10-11 16:33:18.179,609,-293,777,19897,-4058,5493
2025-10-11 16:33:18.226,592,-320,797,-10056,-19484,1037
2025-10-11 16:33:18.226,569,-332,820,7050,-16295,7080
2025-10-11 16:33:18.227,594,-139,792,-22857,-3157,2380
2025-10-11 16:33:18.275,196,-26,946,21622,7341,10742
2025-10-11 16:33:18.275,-119,-312,1096,-18463,-2501,22399
2025-10-11 16:33:18.276,-237,-82,1034,7111,29938,14099
2025-10-11 16:33:18.326,-142,193,921,18875,-18585,4333
2025-10-11 16:33:18.326,-130,237,999,12023,30899,-4150
2025-10-11 16:33:18.374,-253,54,1071,-14648,-4745,-2380
2025-10-11 16:33:18.374,-249,-31,992,-11291,27954,-2380
2025-10-11 16:33:18.421,-170,-8,968,-7202,10253,1708
2025-10-11 16:33:18.422,-189,5,990,-3967,2075,2380
2025-10-11 16:33:18.422,-149,17,982,-7629,1403,2197
2025-10-11 16:33:18.470,-132,28,990,-12573,5065,1647
2025-10-11 16:33:18.471,-145,-5,995,-19897,8911,-671
2025-10-11 16:33:18.519,-181,-73,1019,-11596,3173,549
2025-10-11 16:33:18.519,-167,-49,984,2685,-2868,3601
2025-10-11 16:33:18.520,-147,30,1000,1281,-3540,1525
2025-10-11 16:33:18.567,-159,35,995,-3906,-3479,-3417
2025-10-11 16:33:18.568,-155,-15,1008,-6042,-1586,-3173
2025-10-11 16:33:18.617,-149,-20,1003,-1647,-915,-1159
2025-10-11 16:33:18.617,-165,-2,1015,-1831,-2868,-1892
2025-10-11 16:33:18.620,-159,-13,1017,-3479,-3540,-2685
2025-10-11 16:33:18.666,-154,-21,1019,-4516,-4394,-3662
2025-10-11 16:33:18.666,-153,-43,1010,-2441,-4577,-2929
2025-10-11 16:33:18.714,-149,-34,1019,1403,-3845,-1586
2025-10-11 16:33:18.714,-146,-12,1026,244,-1281,-1647
2025-10-11 16:33:18.715,-150,-31,1028,-1953,-122,-2258
2025-10-11 16:33:18.763,-153,-57,1022,549,-122,-1098
2025-10-11 16:33:18.763,-149,-30,1017,1831,-671,-122
2025-10-11 16:33:18.812,-142,-15,1015,-976,488,-1281
2025-10-11 16:33:18.812,-150,-42,1017,-244,366,-1281
2025-10-11 16:33:18.813,-153,-41,1015,549,-671,0
2025-10-11 16:33:18.860,-143,-35,1012,-183,-549,671
2025-10-11 16:33:18.861,-140,-22,1007,122,732,-61
