timestamp (AEST),ax,ay,az,gx,gy,gz
2025-10-11 16:14:58.220,85,-53,1023,-366,-1220,0
2025-10-11 16:14:58.221,89,-45,1018,427,-1342,-183
2025-10-11 16:14:58.222,92,-43,1020,-488,183,183
2025-10-11 16:14:58.269,88,-49,1028,-1342,610,0
2025-10-11 16:14:58.269,87,-61,1032,549,-671,-854
2025-10-11 16:14:58.323,91,-47,1022,1953,-671,-915
2025-10-11 16:14:58.323,91,-47,1023,427,0,-671
2025-10-11 16:14:58.323,92,-53,1020,244,610,-610
2025-10-11 16:14:58.380,84,-53,1017,671,0,-793
2025-10-11 16:14:58.381,89,-58,1011,1770,-549,-610
2025-10-11 16:14:58.415,87,-52,1012,1525,-244,-732
2025-10-11 16:14:58.420,86,-47,1010,427,-854,-610
2025-10-11 16:14:58.463,87,-44,1000,-1098,-1037,-671
2025-10-11 16:14:58.464,87,-39,986,-3601,-122,-793
2025-10-11 16:14:58.465,83,-48,985,-6530,-183,-671
2025-10-11 16:14:58.512,83,-65,1002,-5310,-2258,-976
2025-10-11 16:14:58.512,89,-67,1012,-1831,-4028,-1831
2025-10-11 16:14:58.561,98,-52,1010,-1770,-2807,-1953
2025-10-11 16:14:58.561,94,-45,1009,-4272,-793,-1464
2025-10-11 16:14:58.562,87,-65,1013,-4028,-1403,-610
2025-10-11 16:14:58.609,91,-71,1019,-2624,-2746,183
2025-10-11 16:14:58.610,100,-64,1029,427,-2746,-427
2025-10-11 16:14:58.709,96,-51,1031,1342,-1831,-915
2025-10-11 16:14:58.710,95,-53,1039,1525,-2197,-2197
2025-10-11 16:14:58.710,99,-56,1034,1464,-2807,-2624
2025-10-11 16:14:58.755,105,-67,1039,732,-2258,-2319
2025-10-11 16:14:58.756,109,-75,1043,427,-1403,-1831
2025-10-11 16:14:58.756,108,-72,1036,-122,61,-1037
2025-10-11 16:14:58.758,107,-80,1032,-122,488,-427
2025-10-11 16:14:58.804,101,-74,1026,1525,61,-183
2025-10-11 16:14:58.805,97,-66,1026,976,-671,-610
2025-10-11 16:14:58.805,103,-68,1026,671,-610,-671
2025-10-11 16:14:58.853,104,-73,1027,915,-183,-1037
2025-10-11 16:14:58.854,99,-67,1021,122,-244,-244
2025-10-11 16:14:58.902,96,-72,1026,-1831,122,305
2025-10-11 16:14:58.902,98,-83,1034,0,915,732
2025-10-11 16:14:58.903,99,-62,1023,671,1098,610
2025-10-11 16:14:58.956,95,-56,1019,-1159,1403,976
2025-10-11 16:14:58.957,95,-65,1020,-1586,549,610
2025-10-11 16:14:59.000,96,-66,1019,-61,122,610
2025-10-11 16:14:59.000,95,-59,1021,0,915,1159
2025-10-11 16:14:59.002,100,-56,1025,0,1098,427
2025-10-11 16:14:59.048,98,-56,1020,-671,1159,-122
2025-10-11 16:14:59.049,95,-42,1020,-3479,976,0
2025-10-11 16:14:59.097,98,-52,1021,-6713,1342,-244
2025-10-11 16:14:59.097,97,-75,1022,-5676,1953,-671
2025-10-11 16:14:59.098,92,-85,1018,-2685,1342,-732
2025-10-11 16:14:59.146,91,-76,1016,-671,366,-610
2025-10-11 16:14:59.147,95,-67,1009,-1892,915,-671
2025-10-11 16:14:59.215,89,-75,1013,-4394,1403,-122
2025-10-11 16:14:59.215,90,-98,1019,-1770,793,-183
2025-10-11 16:14:59.244,88,-92,1011,-549,-183,-183
2025-10-11 16:14:59.245,88,-92,1010,-854,-732,244
2025-10-11 16:14:59.245,92,-88,1014,-610,61,976
2025-10-11 16:14:59.292,93,-82,1016,-1098,1281,976
2025-10-11 16:14:59.293,84,-80,1016,-1403,854,549
2025-10-11 16:14:59.341,82,-86,1015,-122,-976,183
2025-10-11 16:14:59.342,88,-84,1016,1281,-1464,366
2025-10-11 16:14:59.342,94,-74,1020,1220,-671,610
2025-10-11 16:14:59.389,92,-65,1022,-976,549,427
2025-10-11 16:14:59.390,93,-75,1026,-427,305,-244
2025-10-11 16:14:59.438,89,-74,1021,-610,-732,-671
2025-10-11 16:14:59.439,96,-83,1023,-61,-1037,-427
2025-10-11 16:14:59.440,96,-69,1026,549,61,-610
2025-10-11 16:14:59.501,95,-71,1025,-915,732,-671
2025-10-11 16:14:59.501,96,-75,1015,-1586,610,-549
2025-10-11 16:14:59.545,98,-68,1005,-2502,793,-61
2025-10-11 16:14:59.545,97,-46,996,-6469,1464,-61
2025-10-11 16:14:59.585,90,-44,1003,-10620,1342,-488
2025-10-11 16:14:59.586,90,-67,1017,-9704,-183,-2502
2025-10-11 16:14:59.586,96,-95,1032,-5981,-671,-3479
2025-10-11 16:14:59.633,99,-93,1027,-4455,366,-3295
2025-10-11 16:14:59.634,102,-97,1018,-6042,1708,-3417
2025-10-11 16:14:59.682,83,-111,1010,-8300,1647,-2929
2025-10-11 16:14:59.683,84,-147,1015,-6652,0,-2075
2025-10-11 16:14:59.683,92,-153,1014,-1708,183,-1953
2025-10-11 16:14:59.730,82,-144,1016,1281,-488,-1708
2025-10-11 16:14:59.731,86,-135,1020,2746,-671,-976
2025-10-11 16:14:59.788,84,-122,1024,2380,-854,-854
2025-10-11 16:14:59.788,87,-121,1022,1525,-183,-366
2025-10-11 16:14:59.788,85,-116,1017,1464,427,0
2025-10-11 16:14:59.835,85,-113,1016,854,183,183
2025-10-11 16:14:59.836,88,-111,1013,244,-244,-61
2025-10-11 16:14:59.878,86,-116,1012,976,-610,-61
2025-10-11 16:14:59.878,94,-108,1011,1464,-427,183
2025-10-11 16:14:59.879,91,-95,1013,732,183,-122
2025-10-11 16:14:59.926,88,-97,1016,-915,-122,-122
2025-10-11 16:14:59.926,95,-102,1020,-488,-244,-183
2025-10-11 16:14:59.974,94,-98,1021,-549,183,-671
2025-10-11 16:14:59.975,96,-105,1013,-244,671,-854
2025-10-11 16:15:00.023,94,-110,1013,305,610,-671
2025-10-11 16:15:00.023,92,-102,1009,-610,244,-488
2025-10-11 16:15:00.024,93,-111,1014,-976,-61,-976
2025-10-11 16:15:00.078,94,-112,1013,0,-244,-1037
2025-10-11 16:15:00.078,93,-107,1015,-366,488,-854
2025-10-11 16:15:00.121,87,-115,1014,-1037,122,-488
2025-10-11 16:15:00.125,88,-113,1012,-610,-427,-305
2025-10-11 16:15:00.125,88,-113,1019,183,-610,-427
2025-10-11 16:15:00.169,88,-108,1023,-244,-183,-976
2025-10-11 16:15:00.170,84,-119,1022,915,-183,-1220
2025-10-11 16:15:00.218,89,-115,1007,671,-244,61
2025-10-11 16:15:00.219,93,-116,1017,-427,0,610
2025-10-11 16:15:00.219,89,-117,1022,366,0,366
2025-10-11 16:15:00.267,88,-109,1014,610,-549,183
2025-10-11 16:15:00.268,91,-107,1013,183,-244,549
2025-10-11 16:15:00.315,89,-102,1018,-488,0,183
2025-10-11 16:15:00.316,84,-110,1022,-305,-122,0
2025-10-11 16:15:00.367,90,-107,1023,183,0,-61
2025-10-11 16:15:00.367,93,-113,1019,122,610,-183
2025-10-11 16:15:00.368,85,-119,1019,1098,183,488
2025-10-11 16:15:00.418,89,-114,1011,1831,183,793
2025-10-11 16:15:00.418,87,-109,1013,915,183,976
2025-10-11 16:15:00.462,88,-115,1016,1647,-244,488
2025-10-11 16:15:00.463,89,-109,1015,2197,-61,488
2025-10-11 16:15:00.463,85,-111,1013,2258,-122,-61
2025-10-11 16:15:00.510,87,-114,1012,2380,-549,366
2025-10-11 16:15:00.511,90,-113,1012,3051,-427,-61
2025-10-11 16:15:00.559,88,-114,1012,3540,-427,-244
2025-10-11 16:15:00.560,86,-116,1011,3784,-732,-305
2025-10-11 16:15:00.561,84,-112,1010,2868,-1525,61
2025-10-11 16:15:00.608,95,-107,1010,2929,-1220,61
2025-10-11 16:15:00.609,97,-105,1010,2014,-488,0
2025-10-11 16:15:00.657,93,-111,1012,976,-610,122
2025-10-11 16:15:00.658,93,-109,1021,1159,-1037,427
2025-10-11 16:15:00.661,103,-101,1027,1342,-610,1037
2025-10-11 16:15:00.709,96,-86,1022,1098,427,610
2025-10-11 16:15:00.709,90,-83,1016,-1037,915,732
2025-10-11 16:15:00.754,92,-91,1017,-793,610,305
2025-10-11 16:15:00.755,93,-87,1011,305,-122,-976
2025-10-11 16:15:00.803,89,-84,1010,-1586,-976,-1953
2025-10-11 16:15:00.804,97,-106,1017,-610,-671,-1464
2025-10-11 16:15:00.804,100,-102,1020,244,-488,-2014
2025-10-11 16:15:00.853,95,-103,1016,427,-488,-2319
2025-10-11 16:15:00.853,87,-110,1022,1586,-1831,-2258
2025-10-11 16:15:00.901,93,-101,1030,2380,-2319,-2075
2025-10-11 16:15:00.902,101,-97,1039,2258,-1647,-2197
2025-10-11 16:15:00.903,92,-101,1043,2136,122,-1770
2025-10-11 16:15:00.976,86,-111,1053,3601,671,-915
2025-10-11 16:15:00.977,91,-102,1045,5310,1098,-1281
2025-10-11 16:15:01.010,91,-86,1026,2502,1953,-854
2025-10-11 16:15:01.010,87,-111,1012,4211,1159,-1098
2025-10-11 16:15:01.010,79,-102,1002,7202,-244,-793
2025-10-11 16:15:01.055,77,-81,996,9094,-915,-854
2025-10-11 16:15:01.055,82,-61,997,7263,-976,-1403
2025-10-11 16:15:01.096,86,-75,1003,5371,-1403,-2868
2025-10-11 16:15:01.097,86,-87,1005,5310,-1953,-3662
2025-10-11 16:15:01.098,89,-104,1012,5554,-2502,-4089
2025-10-11 16:15:01.193,86,-112,1016,7202,-3723,-3540
2025-10-11 16:15:01.194,97,-113,1021,9887,-2990,-1831
2025-10-11 16:15:01.194,95,-101,1061,14404,-1647,-61
2025-10-11 16:15:01.195,83,-107,1043,21240,-3051,854
2025-10-11 16:15:01.242,74,-107,1059,-31418,-6958,915
2025-10-11 16:15:01.243,92,-70,1061,-18661,-9948,915
2025-10-11 16:15:01.243,111,-42,1061,-7797,-9826,488
2025-10-11 16:15:01.297,103,-40,1040,5386,-9277,-366
2025-10-11 16:15:01.297,86,-64,1031,24307,-13305,-1403
2025-10-11 16:15:01.344,95,-14,1019,-21881,-20812,-976
2025-10-11 16:15:01.344,117,104,965,-18280,-22827,-2563
2025-10-11 16:15:01.344,117,147,962,-27496,-23132,-3479
2025-10-11 16:15:01.389,130,89,1005,-18585,-29663,-2929
2025-10-11 16:15:01.391,155,161,974,-6622,-29663,-3784
2025-10-11 16:15:01.437,145,248,936,-6134,-28747,-3967
2025-10-11 16:15:01.438,155,294,918,-9918,-29663,-2807
2025-10-11 16:15:01.438,173,323,935,-8087,32639,-3662
2025-10-11 16:15:01.486,186,317,904,4242,29587,-7019
2025-10-11 16:15:01.487,182,312,861,22065,27512,-11352
2025-10-11 16:15:01.534,188,323,838,-19607,22629,-11047
2025-10-11 16:15:01.535,250,433,776,-197,18784,-8544
2025-10-11 16:15:01.592,282,600,688,-1967,23483,-7507
2025-10-11 16:15:01.592,291,688,568,-29372,-26550,-305
2025-10-11 16:15:01.593,297,611,565,-20278,-18249,9826
2025-10-11 16:15:01.639,298,694,506,1267,-14892,12207
2025-10-11 16:15:01.639,280,1048,386,-16311,-15380,10131
2025-10-11 16:15:01.681,291,1171,348,-9063,-15136,7324
2025-10-11 16:15:01.681,286,1022,376,21011,-14892,6408
2025-10-11 16:15:01.682,296,933,373,11734,-15808,6774
2025-10-11 16:15:01.729,301,959,354,10574,-17150,-976
2025-10-11 16:15:01.730,305,1034,332,-10849,-17028,-2319
2025-10-11 16:15:01.779,320,972,319,31799,-12573,-2929
2025-10-11 16:15:01.779,312,880,337,32531,-7568,2685
2025-10-11 16:15:01.780,323,954,314,-32761,-4882,2319
2025-10-11 16:15:01.882,314,1035,285,17150,-2136,1708
2025-10-11 16:15:01.882,316,1055,279,-4150,793,2868
2025-10-11 16:15:01.882,314,954,301,-13305,2319,2014
2025-10-11 16:15:01.882,300,916,300,-4089,1953,183
2025-10-11 16:15:01.929,291,961,292,-793,-976,-1892
2025-10-11 16:15:01.929,304,949,291,-3784,-1892,-3051
2025-10-11 16:15:01.929,304,948,291,-6896,-1037,-1586
2025-10-11 16:15:01.974,313,947,303,-10437,1159,366
2025-10-11 16:15:01.975,309,926,316,-9399,3417,1770
2025-10-11 16:15:02.022,300,924,348,-4211,1342,1403
2025-10-11 16:15:02.023,309,929,354,-244,-488,-305
2025-10-11 16:15:02.023,311,935,342,366,-61,-1525
2025-10-11 16:15:02.071,313,944,343,-1770,732,-732
2025-10-11 16:15:02.071,315,955,334,-7812,2746,488
2025-10-11 16:15:02.119,307,916,355,-10009,4211,1037
2025-10-11 16:15:02.120,311,874,365,-5187,4699,915
2025-10-11 16:15:02.121,301,851,368,2929,3967,488
2025-10-11 16:15:02.172,305,866,359,10375,3295,1647
2025-10-11 16:15:02.172,312,911,334,9216,6225,2685
2025-10-11 16:15:02.218,303,955,312,2380,8544,2258
2025-10-11 16:15:02.218,300,921,330,976,7934,2014
2025-10-11 16:15:02.218,308,917,325,4638,7934,1281
2025-10-11 16:15:02.266,307,954,323,7019,8789,61
2025-10-11 16:15:02.267,312,970,324,1953,8911,-2258
2025-10-11 16:15:02.315,310,982,314,-6103,9826,-4211
2025-10-11 16:15:02.315,302,999,317,-19287,10009,-4211
2025-10-11 16:15:02.364,303,949,335,-31982,10437,-3173
2025-10-11 16:15:02.364,314,985,365,26718,11413,-1708
2025-10-11 16:15:02.365,356,1168,334,-26443,24108,-2563
2025-10-11 16:15:02.412,350,1196,257,-28168,-20554,-10314
2025-10-11 16:15:02.412,218,911,412,8376,-19089,-12023
2025-10-11 16:15:02.462,244,821,535,7094,30761,-6774
2025-10-11 16:15:02.463,321,926,537,-3953,28991,-10803
2025-10-11 16:15:02.463,315,899,471,20506,-21164,-16723
2025-10-11 16:15:02.512,160,508,501,-7509,-10117,-18493
2025-10-11 16:15:02.512,98,265,802,14220,-31052,-2319
2025-10-11 16:15:02.558,245,158,943,5324,17578,5371
2025-10-11 16:15:02.559,282,390,869,-19074,29479,2258
2025-10-11 16:15:02.559,189,574,827,29006,-13840,-5004
2025-10-11 16:15:02.607,85,379,923,15151,-23422,-12084
2025-10-11 16:15:02.608,104,214,951,21254,29235,-16235
2025-10-11 16:15:02.655,108,124,946,-24567,25695,-17028
2025-10-11 16:15:02.656,110,115,974,-16694,24536,-15197
2025-10-11 16:15:02.704,107,77,991,-13337,26306,-12451
2025-10-11 16:15:02.705,109,82,969,-19928,30456,-10803
2025-10-11 16:15:02.705,81,-15,958,-30732,-29831,-10742
2025-10-11 16:15:02.755,58,-161,986,-23407,32653,-11291
2025-10-11 16:15:02.755,54,-220,965,-6379,28198,-10803
2025-10-11 16:15:02.803,39,-90,919,-25849,25085,-11108
2025-10-11 16:15:02.803,40,-347,958,-26337,25573,-10070
2025-10-11 16:15:02.804,30,-445,950,-92,26611,-10009
2025-10-11 16:15:02.851,2,-505,958,-31082,25451,-7629
2025-10-11 16:15:02.851,0,-498,949,-4166,20629,-7141
2025-10-11 16:15:02.899,1,-496,918,13840,17456,-7202
2025-10-11 16:15:02.899,-4,-520,916,31296,14038,-3784
2025-10-11 16:15:02.900,-4,-527,910,-17517,10070,-671
2025-10-11 16:15:02.948,9,-531,897,-3601,7507,183
2025-10-11 16:15:02.948,2,-496,900,5493,6774,793
2025-10-11 16:15:02.997,-5,-491,914,11047,3234,5249
2025-10-11 16:15:02.998,-2,-486,916,16662,1892,8178
2025-10-11 16:15:02.998,-6,-472,928,22888,-427,8972
2025-10-11 16:15:03.047,-5,-435,932,24902,-2624,5737
2025-10-11 16:15:03.047,-5,-380,931,20507,-2990,3906
2025-10-11 16:15:03.095,-5,-390,944,15319,-1159,2258
2025-10-11 16:15:03.096,-4,-426,956,17089,-732,61
2025-10-11 16:15:03.143,-9,-389,942,16601,-1159,732
2025-10-11 16:15:03.144,-8,-386,945,10498,-1464,1892
2025-10-11 16:15:03.144,0,-407,950,10986,-976,2502
2025-10-11 16:15:03.192,-3,-398,949,15319,-1586,1770
2025-10-11 16:15:03.192,-4,-373,947,17944,-1770,1098
2025-10-11 16:15:03.241,0,-373,951,20690,-1281,0
2025-10-11 16:15:03.241,-6,-347,946,19287,-2502,-1281
2025-10-11 16:15:03.242,-14,-347,944,15441,-4150,-1525
2025-10-11 16:15:03.289,3,-345,944,10437,-3051,-976
2025-10-11 16:15:03.290,12,-352,945,6835,671,122
2025-10-11 16:15:03.348,-14,-356,944,5004,1403,-244
2025-10-11 16:15:03.349,-26,-385,951,7080,-1525,-183
2025-10-11 16:15:03.349,-13,-386,956,14221,-3051,488
2025-10-11 16:15:03.387,0,-343,947,12329,-1281,-61
2025-10-11 16:15:03.389,-8,-301,948,1831,-793,671
2025-10-11 16:15:03.436,-4,-334,954,-1342,-488,1403
2025-10-11 16:15:03.437,0,-337,951,2136,0,1098
2025-10-11 16:15:03.437,-7,-334,954,6103,-732,366
2025-10-11 16:15:03.485,-15,-317,952,9704,-2868,0
2025-10-11 16:15:03.486,-10,-279,963,5371,-4699,-793
2025-10-11 16:15:03.533,0,-309,984,1281,-4150,0
2025-10-11 16:15:03.533,3,-365,997,8117,-1892,1525
2025-10-11 16:15:03.582,0,-386,1002,24414,-1953,3051
2025-10-11 16:15:03.583,6,-302,978,30700,-2563,1953
2025-10-11 16:15:03.583,16,-250,972,20874,-2441,-915
2025-10-11 16:15:03.631,10,-270,975,13061,-2014,-1586
2025-10-11 16:15:03.641,13,-281,979,6164,-1525,-1708
2025-10-11 16:15:03.680,12,-305,979,1831,-305,-1159
2025-10-11 16:15:03.682,2,-311,981,1647,427,-854
2025-10-11 16:15:03.682,5,-320,986,3601,122,-671
2025-10-11 16:15:03.728,3,-307,980,5371,-549,-488
2025-10-11 16:15:03.728,1,-300,980,4943,-1159,-549
2025-10-11 16:15:03.777,5,-291,979,5310,-671,244
2025-10-11 16:15:03.777,9,-265,975,-2990,793,61
2025-10-11 16:15:03.778,0,-316,993,-854,-61,610
2025-10-11 16:15:03.825,3,-297,988,2502,-793,854
2025-10-11 16:15:03.826,0,-290,985,2685,-427,915
2025-10-11 16:15:03.874,-8,-306,1001,5371,-854,1831
2025-10-11 16:15:03.875,3,-287,1014,10070,-1647,2136
2025-10-11 16:15:03.934,23,-219,994,5981,-183,732
2025-10-11 16:15:03.934,13,-229,983,-4333,2563,61
2025-10-11 16:15:03.934,-5,-281,995,-5493,1220,0
2025-10-11 16:15:03.972,0,-308,1000,2929,-1037,-183
2025-10-11 16:15:03.973,6,-265,984,10009,-183,-488
2025-10-11 16:15:04.021,8,-235,979,7446,976,-1281
2025-10-11 16:15:04.021,5,-246,980,4638,1220,-1708
2025-10-11 16:15:04.022,2,-260,975,4211,793,-1403
2025-10-11 16:15:04.070,0,-267,976,4394,183,-1586
2025-10-11 16:15:04.071,4,-279,983,7019,-610,-1586
2025-10-11 16:15:04.119,5,-248,974,6164,-366,-1403
2025-10-11 16:15:04.119,3,-242,976,549,732,-915
2025-10-11 16:15:04.120,2,-271,980,-732,1220,-549
2025-10-11 16:15:04.167,0,-279,980,3112,427,-366
2025-10-11 16:15:04.167,-5,-263,980,3784,-1831,-427
2025-10-11 16:15:04.216,14,-245,983,1586,-549,-427
2025-10-11 16:15:04.216,5,-248,987,-1037,1037,-366
2025-10-11 16:15:04.264,0,-264,987,-793,427,-244
2025-10-11 16:15:04.265,1,-264,979,488,-1037,-427
2025-10-11 16:15:04.266,-1,-262,981,2136,-2014,-183
2025-10-11 16:15:04.313,6,-253,987,2258,-1831,-122
2025-10-11 16:15:04.314,11,-249,982,976,-549,-61
2025-10-11 16:15:04.362,3,-247,979,-610,0,-61
2025-10-11 16:15:04.362,4,-245,985,-2014,-854,-732
2025-10-11 16:15:04.363,0,-256,989,-793,-1525,-610
2025-10-11 16:15:04.411,10,-274,991,2746,-2014,-122
2025-10-11 16:15:04.411,9,-250,985,2197,-976,183
2025-10-11 16:15:04.459,9,-253,987,122,-915,61
2025-10-11 16:15:04.460,11,-261,983,-122,-1403,244
2025-10-11 16:15:04.461,10,-266,983,1159,-1586,610
2025-10-11 16:15:04.518,6,-252,989,1464,-1403,1159
2025-10-11 16:15:04.518,11,-253,996,1098,-915,732
2025-10-11 16:15:04.557,6,-251,996,1098,-915,671
2025-10-11 16:15:04.559,2,-257,999,854,-1892,61
2025-10-11 16:15:04.562,9,-256,999,2197,-1464,366
2025-10-11 16:15:04.606,16,-259,997,2563,-183,488
2025-10-11 16:15:04.606,8,-263,995,3845,-122,854
2025-10-11 16:15:04.655,2,-260,992,4150,-1464,976
2025-10-11 16:15:04.656,9,-256,998,4028,-2502,1281
2025-10-11 16:15:04.656,14,-253,1000,4760,-1586,854
2025-10-11 16:15:04.703,6,-261,1006,6896,-1037,976
2025-10-11 16:15:04.704,15,-272,1005,12084,-732,1831
2025-10-11 16:15:04.807,12,-239,996,13916,-610,1831
2025-10-11 16:15:04.807,3,-219,990,9704,-1220,1464
2025-10-11 16:15:04.807,7,-224,1002,4943,-976,1586
2025-10-11 16:15:04.807,11,-244,1007,8789,-305,2136
2025-10-11 16:15:04.850,3,-227,1000,9826,-671,2075
2025-10-11 16:15:04.852,7,-236,1005,11840,-2075,1159
2025-10-11 16:15:04.852,3,-244,1007,16357,-3295,1037
2025-10-11 16:15:04.898,8,-265,1005,25390,-4821,1281
2025-10-11 16:15:04.899,8,-254,1003,-30014,-5493,2624
2025-10-11 16:15:04.899,9,-242,1006,-20554,-6164,3784
2025-10-11 16:15:04.947,3,-245,1000,-8224,-8239,3540
2025-10-11 16:15:04.947,-9,-263,998,8133,-12268,4882
2025-10-11 16:15:04.995,-3,-254,1019,-22735,-22399,8056
2025-10-11 16:15:04.996,32,-165,998,-91,-24902,10803
2025-10-11 16:15:05.044,35,-91,1011,18281,-23437,14160
2025-10-11 16:15:05.045,50,-8,1009,-31203,-24536,14770
2025-10-11 16:15:05.046,56,127,1000,-28396,-26245,14831
2025-10-11 16:15:05.099,44,200,1030,-32363,-29174,13977
2025-10-11 16:15:05.099,65,154,1034,-24367,32150,11718
2025-10-11 16:15:05.191,58,34,995,20371,30014,10803
2025-10-11 16:15:05.192,89,110,967,19472,19516,13183
2025-10-11 16:15:05.192,173,496,816,-25923,11581,9277
2025-10-11 16:15:05.239,195,783,688,-15196,27573,-3295
2025-10-11 16:15:05.240,212,624,686,-29540,-29968,2075
2025-10-11 16:15:05.240,232,528,547,490,-23864,3601
2025-10-11 16:15:05.241,252,793,421,7509,-17089,12451
2025-10-11 16:15:05.288,177,1067,295,23240,-16418,18066
2025-10-11 16:15:05.289,183,1055,250,-32180,-16601,11779
2025-10-11 16:15:05.290,174,936,245,1984,-15502,20019
2025-10-11 16:15:05.337,191,919,247,-9674,-23193,28076
2025-10-11 16:15:05.337,194,936,209,-18341,31418,22033
2025-10-11 16:15:05.338,214,982,168,29251,25803,14770
2025-10-11 16:15:05.391,236,1026,150,-3525,25620,10253
2025-10-11 16:15:05.391,268,1026,148,-24704,31296,8056
2025-10-11 16:15:05.435,300,994,160,30212,-27343,5187
2025-10-11 16:15:05.437,321,1065,164,20141,-18432,6164
2025-10-11 16:15:05.483,296,1109,149,-2075,-5432,4638
2025-10-11 16:15:05.483,279,989,191,-16235,1220,2685
2025-10-11 16:15:05.485,299,889,221,-183,-1281,4577
2025-10-11 16:15:05.532,280,982,189,12512,-3356,4211
2025-10-11 16:15:05.532,280,1000,172,12207,-3479,305
2025-10-11 16:15:05.581,292,1017,156,10681,-2441,427
2025-10-11 16:15:05.582,293,1046,141,-4150,671,0
2025-10-11 16:15:05.582,286,998,156,-11413,1831,-488
2025-10-11 16:15:05.629,296,955,173,-5981,2746,-488
2025-10-11 16:15:05.630,275,951,164,-366,3295,-1892
2025-10-11 16:15:05.685,265,947,170,3356,2441,-2075
2025-10-11 16:15:05.685,269,995,161,915,1281,-244
2025-10-11 16:15:05.685,262,985,153,-5310,1586,-1403
2025-10-11 16:15:05.728,269,966,161,-10131,366,1159
2025-10-11 16:15:05.729,265,946,165,-12817,1098,1037
2025-10-11 16:15:05.776,277,886,192,-4760,1770,915
2025-10-11 16:15:05.777,283,927,185,4821,2258,1220
2025-10-11 16:15:05.777,284,1020,177,-9277,5310,488
2025-10-11 16:15:05.824,290,964,195,-17456,7080,732
2025-10-11 16:15:05.825,294,914,209,-11230,7995,2502
2025-10-11 16:15:05.873,294,970,208,-6225,7751,2868
2025-10-11 16:15:05.874,292,1067,187,-17578,9582,1525
2025-10-11 16:15:05.922,289,1109,182,22385,12817,-1159
2025-10-11 16:15:05.922,291,1085,205,-1236,14953,-2990
2025-10-11 16:15:05.923,280,1021,232,-14236,15319,-2929
2025-10-11 16:15:05.972,294,1002,274,-17288,16601,-3356
2025-10-11 16:15:05.972,328,1105,286,12298,25268,-5859
2025-10-11 16:15:06.020,244,913,356,-12909,31311,-11901
2025-10-11 16:15:06.021,289,778,476,-12421,26672,-3784
2025-10-11 16:15:06.022,333,794,497,457,31982,4394
2025-10-11 16:15:06.117,300,974,418,-7355,-16953,3112
2025-10-11 16:15:06.118,197,1064,407,24184,-656,-1586
2025-10-11 16:15:06.119,171,987,541,-16831,-2060,-8178
2025-10-11 16:15:06.120,180,865,633,13121,-17380,-16357
2025-10-11 16:15:06.166,177,695,675,-8669,-30502,-24414
2025-10-11 16:15:06.167,178,551,679,-15443,30090,-21911
2025-10-11 16:15:06.168,167,487,714,-15993,-20248,-4577
2025-10-11 16:15:06.215,116,347,789,-26796,-13290,-3479
2025-10-11 16:15:06.216,116,217,815,22444,-15427,-7934
2025-10-11 16:15:06.271,72,131,837,2546,-20981,-10803
2025-10-11 16:15:06.271,38,-131,846,7795,-30014,-10742
2025-10-11 16:15:06.271,22,-419,858,-11720,31372,-4821
2025-10-11 16:15:06.314,17,-554,937,-3709,28320,2746
2025-10-11 16:15:06.314,40,-530,953,-8454,25146,2746
2025-10-11 16:15:06.361,8,-382,933,18341,22583,-1525
2025-10-11 16:15:06.363,0,-258,926,-2350,17578,-5310
2025-10-11 16:15:06.364,-2,-416,915,-11261,14343,-2868
2025-10-11 16:15:06.409,5,-689,936,22918,11108,1892
2025-10-11 16:15:06.410,-2,-748,915,6149,10620,5004
2025-10-11 16:15:06.458,5,-664,899,-23071,11779,7934
2025-10-11 16:15:06.458,-6,-598,884,-6164,12634,9033
2025-10-11 16:15:06.459,-12,-570,886,2624,11352,9033
2025-10-11 16:15:06.508,-14,-563,874,12634,8850,9277
2025-10-11 16:15:06.508,-24,-532,880,15625,5432,9277
2025-10-11 16:15:06.608,-21,-531,891,17333,1770,7202
2025-10-11 16:15:06.608,-10,-507,886,18920,1403,8117
2025-10-11 16:15:06.608,-13,-492,900,16967,3479,7324
2025-10-11 16:15:06.608,-25,-446,900,7080,1770,3417
2025-10-11 16:15:06.654,-28,-482,905,-1586,0,1464
2025-10-11 16:15:06.654,-20,-522,891,610,-732,305
2025-10-11 16:15:06.656,-16,-524,876,7690,793,1708
2025-10-11 16:15:06.702,-33,-528,879,17578,1647,1953
2025-10-11 16:15:06.703,-32,-506,880,26550,1220,2319
2025-10-11 16:15:06.703,-28,-457,880,27404,427,1586
2025-10-11 16:15:06.750,-19,-448,887,22949,305,488
2025-10-11 16:15:06.751,-25,-440,890,19287,-183,-427
2025-10-11 16:15:06.799,-32,-446,896,16174,-2075,-1892
2025-10-11 16:15:06.800,-29,-453,906,16601,-3662,-2441
2025-10-11 16:15:06.800,-14,-450,912,18493,-3479,-1953
2025-10-11 16:15:06.869,-14,-444,918,20141,-1525,-1098
2025-10-11 16:15:06.869,-20,-448,937,22949,-732,-488
2025-10-11 16:15:06.897,-22,-421,937,24536,-610,0
2025-10-11 16:15:06.898,-28,-396,930,22705,-183,-793
2025-10-11 16:15:06.900,-32,-375,934,16174,-1037,-2685
2025-10-11 16:15:06.946,-31,-396,949,10131,-3662,-4028
2025-10-11 16:15:06.947,-16,-406,944,9033,-5371,-3234
2025-10-11 16:15:06.994,-2,-397,929,4638,-1831,-1647
2025-10-11 16:15:06.995,-15,-393,940,-1037,366,-2014
2025-10-11 16:15:07.043,-26,-416,947,915,1281,-2014
2025-10-11 16:15:07.044,-27,-425,952,8056,1342,-1586
2025-10-11 16:15:07.045,-23,-406,949,14282,1403,-1525
2025-10-11 16:15:07.092,-18,-386,942,16601,1525,-1403
2025-10-11 16:15:07.093,-27,-371,942,14953,1342,-2197
2025-10-11 16:15:07.148,-23,-395,958,15930,732,-2685
2025-10-11 16:15:07.149,-12,-386,955,18432,671,-2990
2025-10-11 16:15:07.149,-19,-371,942,19409,1525,-1770
2025-10-11 16:15:07.191,-28,-367,954,19531,854,61
2025-10-11 16:15:07.191,-29,-361,961,21301,244,0
2025-10-11 16:15:07.238,-22,-364,964,23864,305,305
2025-10-11 16:15:07.238,-8,-347,955,26611,1281,-61
2025-10-11 16:15:07.239,-31,-334,954,26916,1953,305
2025-10-11 16:15:07.287,-32,-311,964,24658,976,732
2025-10-11 16:15:07.287,-21,-287,969,16662,-1525,-1037
2025-10-11 16:15:07.335,-14,-285,967,8178,-1831,-1464
2025-10-11 16:15:07.336,-5,-312,965,4333,-488,-1281
2025-10-11 16:15:07.385,-13,-326,972,5798,427,1098
2025-10-11 16:15:07.386,-26,-328,974,13977,-244,1892
2025-10-11 16:15:07.386,-34,-320,972,22644,-305,1831
2025-10-11 16:15:07.436,-43,-298,987,32470,-1647,2990
2025-10-11 16:15:07.437,-34,-255,1003,-29282,-4638,2868
2025-10-11 16:15:07.484,-10,-213,1003,32165,-5920,1708
2025-10-11 16:15:07.484,-9,-204,988,25695,-3723,-305
2025-10-11 16:15:07.485,-23,-215,998,23071,-2075,-427
2025-10-11 16:15:07.531,-26,-257,1009,29907,-2990,0
2025-10-11 16:15:07.532,-20,-233,995,-24460,-4638,305
2025-10-11 16:15:07.580,-16,-149,962,-22690,-6225,-3784
2025-10-11 16:15:07.581,-30,-96,971,28747,-11657,-5920
2025-10-11 16:15:07.581,-9,-131,981,21972,-16174,-5676
2025-10-11 16:15:07.628,9,-171,1007,18615,-18798,-4821
2025-10-11 16:15:07.629,24,-198,1032,20690,-17395,-4516
2025-10-11 16:15:07.677,47,-137,1042,18737,-10986,-1159
2025-10-11 16:15:07.677,49,-119,1046,8789,-1831,-1525
2025-10-11 16:15:07.678,36,-118,1047,-2563,4028,-2014
2025-10-11 16:15:07.734,14,-131,1032,-12145,5615,-1586
2025-10-11 16:15:07.734,2,-163,1028,-14770,4089,-1159
2025-10-11 16:15:07.775,10,-197,1036,-9399,488,366
2025-10-11 16:15:07.777,27,-197,1020,3295,549,732
2025-10-11 16:15:07.823,18,-156,1027,5004,976,1342
2025-10-11 16:15:07.824,24,-122,1021,549,1281,976
2025-10-11 16:15:07.824,17,-135,1021,-2990,1586,854
2025-10-11 16:15:07.872,11,-170,1025,-1159,549,2380
2025-10-11 16:15:07.873,19,-171,1019,2441,244,3479
2025-10-11 16:15:07.921,12,-138,1008,3723,854,3112
2025-10-11 16:15:07.921,2,-135,1011,3845,305,2075
2025-10-11 16:15:07.922,0,-130,1010,5126,-366,2746
2025-10-11 16:15:07.988,6,-125,1001,6042,488,732
2025-10-11 16:15:07.988,-7,-133,1005,7690,-793,-1464
2025-10-11 16:15:08.027,-5,-152,1010,11108,-3234,-2014
2025-10-11 16:15:08.027,11,-123,1002,11657,-2929,-1953
2025-10-11 16:15:08.027,15,-120,996,8789,-732,-3112
2025-10-11 16:15:08.067,15,-118,978,6347,915,-3845
2025-10-11 16:15:08.067,1,-134,970,2868,-61,-4272
2025-10-11 16:15:08.115,-10,-177,980,7141,-4211,-5249
2025-10-11 16:15:08.116,-7,-202,989,20202,-9155,-3784
2025-10-11 16:15:08.165,-1,-173,995,-31784,-11657,-3234
2025-10-11 16:15:08.166,5,-154,1009,-22079,-12390,-1525
2025-10-11 16:15:08.166,18,-134,1019,-11276,-11291,732
2025-10-11 16:15:08.213,8,-115,1020,-3647,-11413,1586
2025-10-11 16:15:08.213,12,-121,1046,8255,-16479,4699
2025-10-11 16:15:08.271,34,-83,1042,24124,-20812,6408
2025-10-11 16:15:08.271,49,-15,1024,-31402,-21118,8178
2025-10-11 16:15:08.271,56,15,1000,-24200,-20507,8056
2025-10-11 16:15:08.321,30,-20,1022,-8026,-25329,10253
2025-10-11 16:15:08.321,44,-158,1045,-23635,30136,18920
2025-10-11 16:15:08.360,108,-48,1006,-29845,18478,27954
2025-10-11 16:15:08.360,114,266,894,-10436,12070,20935
2025-10-11 16:15:08.361,105,290,817,17946,8469,18615
2025-10-11 16:15:08.408,181,394,666,-9748,3403,18676
2025-10-11 16:15:08.408,206,756,535,-21040,5966,15686
2025-10-11 16:15:08.457,184,813,471,12453,11948,10375
2025-10-11 16:15:08.457,232,834,453,-13548,13535,15502
2025-10-11 16:15:08.458,249,769,370,-25206,17258,17272
2025-10-11 16:15:08.505,277,826,312,-27464,18356,16967
2025-10-11 16:15:08.506,335,1007,262,16404,22141,21240
2025-10-11 16:15:08.563,355,1202,216,-32668,31540,18981
2025-10-11 16:15:08.564,361,1212,179,-24139,-19897,12084
2025-10-11 16:15:08.611,352,1141,170,-9018,-3295,10131
2025-10-11 16:15:08.611,296,959,182,-11765,-4089,8056
2025-10-11 16:15:08.611,289,969,183,-5783,-11047,4455
2025-10-11 16:15:08.652,326,1112,150,-18112,-17395,-1586
2025-10-11 16:15:08.653,285,1100,88,13488,-16357,-10803
2025-10-11 16:15:08.700,311,978,123,915,-15502,-5554
2025-10-11 16:15:08.702,380,1021,113,3173,-7690,2258
2025-10-11 16:15:08.702,356,1078,93,-13854,3479,-2685
2025-10-11 16:15:08.750,299,958,115,-26916,7812,-6958
2025-10-11 16:15:08.750,305,895,148,-14709,5126,854
2025-10-11 16:15:08.799,303,944,145,-2868,2502,-1464
2025-10-11 16:15:08.799,307,1042,130,-10620,2441,-3479
2025-10-11 16:15:08.800,312,1042,133,-19897,5676,-4455
2025-10-11 16:15:08.857,313,998,150,-24169,9643,-4760
2025-10-11 16:15:08.857,297,928,188,-16784,9704,-5737
2025-10-11 16:15:08.906,311,991,202,-14282,6958,-3295
2025-10-11 16:15:08.906,297,1066,181,-28442,8422,-2258
2025-10-11 16:15:08.946,303,1082,202,15976,8789,-3112
2025-10-11 16:15:08.947,322,1077,224,-3555,10559,-4882
2025-10-11 16:15:08.947,351,1156,234,-30533,14953,-9338
2025-10-11 16:15:08.993,300,1112,245,-23224,26000,-15441
2025-10-11 16:15:08.994,323,995,345,18508,27954,-9399
2025-10-11 16:15:09.090,360,1027,425,-14390,-32211,-6958
2025-10-11 16:15:09.092,349,973,426,2013,-24094,-10070
2025-10-11 16:15:09.092,266,814,417,23237,-15549,-12084
2025-10-11 16:15:09.093,191,673,538,6086,-16769,-4028
2025-10-11 16:15:09.150,192,512,680,18293,-24826,3540
2025-10-11 16:15:09.150,172,412,778,-16298,-32394,5798
2025-10-11 16:15:09.150,198,316,817,15868,-29709,6713
2025-10-11 16:15:09.150,201,246,869,-18540,-19699,10314
2025-10-11 16:15:09.197,180,154,982,17165,-8957,13000
2025-10-11 16:15:09.197,117,108,1069,-24750,-12375,13854
2025-10-11 16:15:09.237,111,135,1097,-7721,-19272,11840
2025-10-11 16:15:09.239,100,181,1031,-2167,-19272,5432
2025-10-11 16:15:09.239,42,270,968,-27863,-14511,-61
2025-10-11 16:15:09.285,37,154,954,319,-14450,-2624
2025-10-11 16:15:09.286,19,-77,933,-14207,-17380,-4394
2025-10-11 16:15:09.334,-7,-289,869,136,-18295,-3356
2025-10-11 16:15:09.335,-53,-490,865,-21027,-19028,-1708
2025-10-11 16:15:09.383,-66,-641,960,-19058,-29343,366
2025-10-11 16:15:09.384,-60,-475,940,10559,15563,2014
2025-10-11 16:15:09.384,-46,-317,896,26245,9094,-305
2025-10-11 16:15:09.437,-46,-265,907,19348,5432,-2502
2025-10-11 16:15:09.437,-37,-298,949,12207,1342,-1159
2025-10-11 16:15:09.483,-8,-339,974,13061,-1831,183
2025-10-11 16:15:09.483,-14,-304,979,13183,-2807,1403
2025-10-11 16:15:09.484,-21,-270,974,7507,-1892,1403
2025-10-11 16:15:09.529,-17,-278,971,3234,610,1525
2025-10-11 16:15:09.530,-35,-291,975,2502,2197,2136
2025-10-11 16:15:09.578,-39,-304,980,5798,1037,1281
2025-10-11 16:15:09.578,-28,-291,971,8361,-671,854
2025-10-11 16:15:09.579,-34,-279,955,8300,-732,305
2025-10-11 16:15:09.627,-27,-288,963,8911,-427,1708
2025-10-11 16:15:09.627,-15,-290,979,11474,-1281,2197
2025-10-11 16:15:09.675,-13,-272,977,12939,-1892,2746
2025-10-11 16:15:09.676,-25,-247,986,11657,-2380,2563
2025-10-11 16:15:09.733,-28,-235,1002,9460,-3784,1647
2025-10-11 16:15:09.733,-33,-214,1011,7080,-4577,1098
2025-10-11 16:15:09.733,-13,-211,1016,6164,-854,-793
2025-10-11 16:15:09.773,-23,-220,1017,6469,1586,-2563
2025-10-11 16:15:09.774,-21,-227,996,6164,3356,-2685
2025-10-11 16:15:09.822,-32,-239,995,6774,3662,-2563
2025-10-11 16:15:09.822,-48,-240,1009,7202,-122,-1464
2025-10-11 16:15:09.823,-17,-230,996,7690,-2502,-3479
2025-10-11 16:15:09.870,-14,-215,986,5249,-2136,-2990
2025-10-11 16:15:09.871,-22,-225,982,2868,-1708,-3417
2025-10-11 16:15:09.919,-22,-248,988,3295,-1892,-2685
2025-10-11 16:15:09.920,-18,-241,985,4882,-2990,-1892
2025-10-11 16:15:09.921,-11,-233,974,4882,-2502,-1831
2025-10-11 16:15:09.993,-8,-214,970,4516,-1403,-1708
2025-10-11 16:15:09.993,-28,-175,957,-2075,122,-4394
2025-10-11 16:15:10.018,-37,-203,979,-4699,-2014,-5004
2025-10-11 16:15:10.018,-22,-275,1003,5187,-5187,-5126
2025-10-11 16:15:10.018,-6,-266,1010,18188,-6896,-3845
2025-10-11 16:15:10.066,8,-210,994,21972,-4821,-2136
2025-10-11 16:15:10.067,5,-180,996,13854,-1525,-3662
2025-10-11 16:15:10.115,0,-186,1009,2380,-732,-4028
2025-10-11 16:15:10.115,-2,-214,1002,-3662,-1220,-2624
2025-10-11 16:15:10.164,-11,-244,1005,-3051,-1586,-1098
2025-10-11 16:15:10.164,-14,-248,1012,1403,-2014,549
2025-10-11 16:15:10.165,-9,-235,1018,3723,-1037,244
2025-10-11 16:15:10.212,-6,-213,1012,2136,488,-366
2025-10-11 16:15:10.213,-18,-214,1017,610,915,976
2025-10-11 16:15:10.273,-13,-217,1025,610,305,1220
2025-10-11 16:15:10.273,-5,-206,1018,183,488,1220
2025-10-11 16:15:10.273,-10,-207,1005,-1037,1342,61
2025-10-11 16:15:10.311,-12,-213,1001,-610,1586,122
2025-10-11 16:15:10.311,-12,-217,1004,610,305,244
2025-10-11 16:15:10.358,-12,-207,1000,1281,-793,244
2025-10-11 16:15:10.358,-4,-203,1000,244,15319,610
2025-10-11 16:15:10.360,-4,-206,1006,0,854,366
2025-10-11 16:15:10.407,-9,-212,1004,732,1037,-61
2025-10-11 16:15:10.407,-12,-209,999,1403,427,183
2025-10-11 16:15:10.456,-10,-204,999,1953,61,183
2025-10-11 16:15:10.457,-3,-206,1001,2014,-122,244
2025-10-11 16:15:10.506,-3,-205,993,2136,549,-366
2025-10-11 16:15:10.506,-15,-212,996,2746,244,-244
2025-10-11 16:15:10.506,-10,-209,999,2685,-1403,183
2025-10-11 16:15:10.555,4,-207,990,2136,-915,-122
2025-10-11 16:15:10.555,0,-212,992,2319,183,671
2025-10-11 16:15:10.604,-11,-202,996,2014,-1342,-122
2025-10-11 16:15:10.604,-19,-198,1008,3540,-2563,-732
2025-10-11 16:15:10.604,-6,-193,1003,5493,-2136,-1403
2025-10-11 16:15:10.651,2,-193,998,5432,-122,-1586
2025-10-11 16:15:10.652,-10,-189,1003,2929,305,-549
2025-10-11 16:15:10.699,-4,-190,1001,-976,-122,-244
2025-10-11 16:15:10.700,-6,-206,1001,-1159,244,-244
2025-10-11 16:15:10.701,-7,-201,998,1281,427,122
2025-10-11 16:15:10.748,-12,-190,1001,1953,-61,-366
2025-10-11 16:15:10.748,-16,-181,999,549,-1098,-1098
2025-10-11 16:15:10.797,-8,-192,998,549,-488,-671
2025-10-11 16:15:10.798,-4,-198,1004,1647,-732,-244
2025-10-11 16:15:10.799,-10,-191,1004,915,-1525,-305
2025-10-11 16:15:10.849,-16,-196,1013,1220,-2807,-427
2025-10-11 16:15:10.849,-4,-196,1009,3417,-2990,-366
2025-10-11 16:15:10.895,0,-177,1002,3967,-976,-427
2025-10-11 16:15:10.896,0,-173,1008,1953,366,-1037
2025-10-11 16:15:10.943,0,-179,1004,244,244,-1770
2025-10-11 16:15:10.943,-10,-195,1003,854,-1281,-2197
2025-10-11 16:15:10.944,-4,-199,1002,1159,-2563,-2014
2025-10-11 16:15:10.992,-5,-157,1006,610,-1464,-1464
2025-10-11 16:15:10.993,-6,-197,1014,366,-488,-1525
2025-10-11 16:15:11.041,-7,-195,1012,793,183,-2075
2025-10-11 16:15:11.042,-8,-199,1012,61,-183,-2197
2025-10-11 16:15:11.042,-7,-208,1012,244,-1342,-2197
2025-10-11 16:15:11.090,-1,-211,1012,1220,-1647,-1281
2025-10-11 16:15:11.090,3,-208,1018,732,-1220,-549
2025-10-11 16:15:11.145,1,-200,1019,-122,-671,-122
2025-10-11 16:15:11.145,5,-200,1014,-915,488,-122
2025-10-11 16:15:11.145,0,-211,1015,-122,976,61
2025-10-11 16:15:11.188,-4,-213,1008,1770,-305,244
2025-10-11 16:15:11.189,6,-195,999,671,183,732
2025-10-11 16:15:11.236,-6,-200,1010,305,427,976
2025-10-11 16:15:11.236,-4,-203,1015,1708,-610,854
2025-10-11 16:15:11.284,2,-185,1006,2197,-305,549
2025-10-11 16:15:11.285,0,-183,1003,915,915,488
2025-10-11 16:15:11.286,1,-194,1003,549,1708,122
2025-10-11 16:15:11.333,-5,-197,1001,2075,1098,-122
2025-10-11 16:15:11.334,-9,-195,999,3234,-671,0
2025-10-11 16:15:11.382,-2,-183,1000,2868,-1892,-183
2025-10-11 16:15:11.434,-2,-179,1005,1708,-1220,-183
2025-10-11 16:15:11.434,6,-183,1006,1770,427,61
2025-10-11 16:15:11.434,2,-182,1002,1281,1281,61
2025-10-11 16:15:11.434,-5,-176,995,244,793,-305
2025-10-11 16:15:11.481,-1,-186,992,854,0,-854
2025-10-11 16:15:11.481,-8,-186,991,2197,-1586,-1037
2025-10-11 16:15:11.482,-6,-182,991,2807,-2136,-1281
2025-10-11 16:15:11.528,-2,-180,1006,2197,-2197,-1831
2025-10-11 16:15:11.530,0,-185,1010,2075,-2075,-2380
2025-10-11 16:15:11.577,3,-187,1010,1892,-1464,-1708
2025-10-11 16:15:11.578,2,-185,1013,854,-1098,-1403
2025-10-11 16:15:11.579,-7,-191,1014,366,-1525,-1159
2025-10-11 16:15:11.625,-4,-199,1021,1586,-1892,-915
2025-10-11 16:15:11.626,15,-198,1016,3234,-671,-305
2025-10-11 16:15:11.675,10,-184,1007,2258,1403,122
2025-10-11 16:15:11.676,1,-192,1006,61,1220,854
2025-10-11 16:15:11.676,-1,-193,1007,183,-671,915
2025-10-11 16:15:11.736,6,-185,1002,1342,-1464,1159
2025-10-11 16:15:11.736,3,-172,1002,1708,-549,1037
2025-10-11 16:15:11.783,1,-177,1011,2075,-61,549
2025-10-11 16:15:11.783,4,-172,1000,2624,0,366
2025-10-11 16:15:11.822,-1,-177,998,3540,-854,305
2025-10-11 16:15:11.822,-8,-187,1000,6591,-2807,183
2025-10-11 16:15:11.822,-8,-194,1007,12023,-4577,183
2025-10-11 16:15:11.870,-7,-187,1019,19287,-5737,549
2025-10-11 16:15:11.871,2,-172,1021,26855,-6408,-61
2025-10-11 16:15:11.918,0,-155,1011,-31845,-5920,-732
2025-10-11 16:15:11.919,-5,-160,996,-22141,-7202,-854
2025-10-11 16:15:11.919,-11,-168,978,-8224,-11474,-2319
2025-10-11 16:15:11.967,-12,-184,988,12100,-19470,-1586
2025-10-11 16:15:11.968,16,-168,949,-14129,-27099,-2075
2025-10-11 16:15:12.026,-3,-269,944,-31264,-31066,1464
2025-10-11 16:15:12.026,8,-352,932,-17149,24643,9399
2025-10-11 16:15:12.073,33,-131,839,-16340,8041,11230
2025-10-11 16:15:12.073,28,3,720,25164,-3494,9582
2025-10-11 16:15:12.073,76,116,674,-5643,-20889,15319
2025-10-11 16:15:12.113,155,454,542,-9733,29876,13427
2025-10-11 16:15:12.114,162,768,411,10454,31524,2014
2025-10-11 16:15:12.162,184,839,419,31801,-27176,2502
2025-10-11 16:15:12.162,271,863,447,246,-22842,17761
2025-10-11 16:15:12.163,342,998,401,30747,-3738,17944
2025-10-11 16:15:12.210,421,1192,343,-12404,18539,15563
2025-10-11 16:15:12.211,403,1181,298,6989,-19470,12939
2025-10-11 16:15:12.259,393,1156,272,-20172,-1464,17272
2025-10-11 16:15:12.260,361,1246,212,9964,8911,17517
2025-10-11 16:15:12.260,307,1252,200,31616,10864,13732
2025-10-11 16:15:12.309,306,1161,200,-2807,6042,9765
2025-10-11 16:15:12.316,297,934,203,-4943,2075,5126
2025-10-11 16:15:12.363,328,949,205,12023,-915,7507
2025-10-11 16:15:12.363,351,1038,184,13244,2746,3845
2025-10-11 16:15:12.363,353,1048,164,-9948,10009,2197
2025-10-11 16:15:12.406,314,934,183,-12023,7446,4028
2025-10-11 16:15:12.406,360,910,215,2136,4211,5187
2025-10-11 16:15:12.455,359,1005,190,4394,5126,1647
2025-10-11 16:15:12.455,326,997,164,-4211,7141,244
2025-10-11 16:15:12.503,333,973,187,-10131,6103,3173
2025-10-11 16:15:12.504,333,910,210,-7568,5737,1586
2025-10-11 16:15:12.504,330,897,221,3784,2807,1831
2025-10-11 16:15:12.552,325,961,203,5920,244,854
2025-10-11 16:15:12.552,333,989,206,-1770,61,122
2025-10-11 16:15:12.606,343,903,223,-1831,1464,61
2025-10-11 16:15:12.606,339,921,224,4394,1464,793
2025-10-11 16:15:12.606,336,984,218,-61,1525,-183
2025-10-11 16:15:12.652,333,995,230,-13244,244,-915
2025-10-11 16:15:12.652,338,937,243,-20812,-427,-1342
2025-10-11 16:15:12.698,345,875,261,-14160,-305,-1342
2025-10-11 16:15:12.699,347,916,262,-7385,854,-793
2025-10-11 16:15:12.699,348,970,252,-11230,3967,-1037
2025-10-11 16:15:12.747,325,940,258,-15319,6774,-2380
2025-10-11 16:15:12.748,327,924,282,-12756,4089,-793
2025-10-11 16:15:12.796,336,967,285,-13610,2258,-1159
2025-10-11 16:15:12.796,347,998,281,-21484,4211,-1037
2025-10-11 16:15:12.844,341,971,287,-28076,7568,-2136
2025-10-11 16:15:12.845,351,1005,314,31601,9521,-976
2025-10-11 16:15:12.846,365,1107,306,10422,15075,-1403
2025-10-11 16:15:12.895,369,1149,315,-25650,25268,-2197
2025-10-11 16:15:12.895,356,1164,338,-4853,-30991,-2807
2025-10-11 16:15:12.946,360,1173,391,7216,-24338,-1831
2025-10-11 16:15:12.946,347,1079,439,17394,-17319,-2868
2025-10-11 16:15:12.946,302,786,522,3600,-13474,-2502
2025-10-11 16:15:13.040,303,695,674,25450,-16220,-488
2025-10-11 16:15:13.040,284,703,684,20201,-14877,-7202
2025-10-11 16:15:13.041,220,603,675,5919,-9750,-11779
2025-10-11 16:15:13.088,145,478,746,2562,-10910,-7507
2025-10-11 16:15:13.089,151,313,860,10619,-19638,-5554
2025-10-11 16:15:13.089,166,195,901,-30076,-27328,-8300
2025-10-11 16:15:13.090,153,233,911,-18846,-30075,-6042
2025-10-11 16:15:13.137,166,111,906,-7981,-25009,-1708
2025-10-11 16:15:13.138,157,-28,955,16128,-19272,183
2025-10-11 16:15:13.138,130,-89,990,-19623,-16830,671
2025-10-11 16:15:13.188,121,57,939,-9247,-17746,-2014
2025-10-11 16:15:13.188,83,108,873,11794,-19028,-4699
2025-10-11 16:15:13.235,48,-167,896,-13658,-22812,-5371
2025-10-11 16:15:13.235,33,-346,912,2456,-29953,-915
2025-10-11 16:15:13.283,35,-426,890,28090,31860,1770
2025-10-11 16:15:13.284,32,-452,866,-15595,-31723,4394
2025-10-11 16:15:13.284,5,-445,839,-5036,-28976,4821
2025-10-11 16:15:13.332,-20,-503,830,-6684,-30624,2990
2025-10-11 16:15:13.333,-51,-678,855,15289,27221,5493
2025-10-11 16:15:13.380,-44,-714,833,-16922,15075,12451
2025-10-11 16:15:13.381,-6,-607,760,1450,15563,12084
2025-10-11 16:15:13.382,-28,-556,736,-8926,18066,11108
2025-10-11 16:15:13.429,-53,-652,743,-5875,19165,13732
2025-10-11 16:15:13.430,-56,-727,764,18784,18066,13549
2025-10-11 16:15:13.483,-66,-706,761,-15502,14953,10253
2025-10-11 16:15:13.483,-81,-682,750,12634,12939,8178
2025-10-11 16:15:13.483,-82,-649,775,-32333,7751,6652
2025-10-11 16:15:13.576,-77,-601,795,-22202,1525,5187
2025-10-11 16:15:13.576,-57,-545,792,-25742,-366,3234
2025-10-11 16:15:13.577,-69,-548,812,-32089,793,549
2025-10-11 16:15:13.624,-73,-561,851,30029,-915,0
2025-10-11 16:15:13.625,-73,-568,860,28686,-1464,-1220
2025-10-11 16:15:13.626,-72,-576,860,31127,-1586,-1037
2025-10-11 16:15:13.627,-69,-596,854,-25436,122,244
2025-10-11 16:15:13.673,-78,-565,865,-18356,1586,244
2025-10-11 16:15:13.674,-76,-511,864,-23666,1525,-1464
2025-10-11 16:15:13.722,-73,-477,858,26672,1525,-2990
2025-10-11 16:15:13.722,-78,-503,866,12268,732,-3784
2025-10-11 16:15:13.723,-80,-533,874,7263,-610,-3173
2025-10-11 16:15:13.772,-78,-548,876,7080,-1831,-2563
2025-10-11 16:15:13.773,-70,-554,870,16296,-1281,-1159
2025-10-11 16:15:13.820,-74,-522,873,17028,-1098,-671
2025-10-11 16:15:13.821,-77,-516,868,16357,-183,-732
2025-10-11 16:15:13.821,-78,-534,874,20751,-671,-183
2025-10-11 16:15:13.868,-73,-526,880,28442,-2441,854
2025-10-11 16:15:13.868,-69,-449,870,26794,-3295,1098
2025-10-11 16:15:13.917,-60,-417,871,15197,-2380,-122
2025-10-11 16:15:13.917,-78,-441,885,4516,-2807,-1220
2025-10-11 16:15:13.918,-60,-479,895,4394,-2075,-2319
2025-10-11 16:15:13.965,-75,-498,907,12329,-2929,-122
2025-10-11 16:15:13.966,-75,-475,914,25634,-2807,366
2025-10-11 16:15:14.032,-66,-409,920,21057,-2685,122
2025-10-11 16:15:14.033,-64,-388,919,4394,-2563,-1831
2025-10-11 16:15:14.071,-47,-452,919,-3784,-671,-2990
2025-10-11 16:15:14.072,-61,-484,920,1342,427,-1098
2025-10-11 16:15:14.072,-70,-476,917,7751,-488,244
2025-10-11 16:15:14.112,-64,-472,915,14831,-1708,793
2025-10-11 16:15:14.113,-76,-418,917,13183,-3967,427
2025-10-11 16:15:14.161,-62,-403,928,6042,-3662,-2075
2025-10-11 16:15:14.162,-55,-431,937,671,-1281,-1892
2025-10-11 16:15:14.162,-55,-464,933,3479,1281,-1159
2025-10-11 16:15:14.209,-72,-461,935,7751,1770,-61
2025-10-11 16:15:14.210,-81,-460,938,13305,122,-122
2025-10-11 16:15:14.258,-82,-460,941,19287,-2197,244
2025-10-11 16:15:14.259,-68,-405,937,19104,-3540,183
2025-10-11 16:15:14.260,-56,-378,928,10253,-2197,-1464
2025-10-11 16:15:14.311,-46,-411,931,3051,732,-1098
2025-10-11 16:15:14.311,-44,-428,919,3234,2502,183
2025-10-11 16:15:14.356,-64,-420,909,6835,2075,1647
2025-10-11 16:15:14.357,-71,-391,910,5981,-1586,-122
2025-10-11 16:15:14.405,-54,-385,903,793,-1647,-427
2025-10-11 16:15:14.406,-64,-400,915,3295,-1220,0
2025-10-11 16:15:14.406,-61,-398,919,6835,-1708,-610
2025-10-11 16:15:14.453,-62,-403,920,10498,-2197,-732
2025-10-11 16:15:14.454,-57,-376,919,10620,-2563,-793
2025-10-11 16:15:14.502,-51,-368,916,6347,-2075,-1159
2025-10-11 16:15:14.503,-52,-361,917,0,-1464,-1037
2025-10-11 16:15:14.503,-62,-396,929,-915,-2441,-549
2025-10-11 16:15:14.551,-57,-408,938,3295,-3906,-305
2025-10-11 16:15:14.551,-63,-388,946,6164,-4028,-793
2025-10-11 16:15:14.607,-54,-366,954,5371,-2563,-1525
2025-10-11 16:15:14.607,-48,-363,955,1159,-549,-1770
2025-10-11 16:15:14.607,-53,-381,955,-1159,427,-1892
2025-10-11 16:15:14.649,-60,-402,962,-61,-122,-1586
2025-10-11 16:15:14.649,-52,-387,957,1098,-1098,-1525
2025-10-11 16:15:14.697,-49,-378,949,-305,-549,-2258
2025-10-11 16:15:14.697,-52,-390,945,-976,61,-2014
2025-10-11 16:15:14.698,-51,-400,940,0,488,-1342
2025-10-11 16:15:14.746,-55,-407,945,2441,122,-915
2025-10-11 16:15:14.746,-52,-392,945,3967,-915,-610
2025-10-11 16:15:14.794,-47,-377,935,2136,-122,-1098
2025-10-11 16:15:14.795,-57,-382,941,0,-671,-366
2025-10-11 16:15:14.867,-59,-393,945,-1037,-2075,-244
2025-10-11 16:15:14.867,-43,-396,946,305,-1342,122
2025-10-11 16:15:14.867,-43,-383,948,1037,305,366
2025-10-11 16:15:14.894,-52,-385,948,793,1159,61
2025-10-11 16:15:14.894,-58,-381,948,-427,61,305
2025-10-11 16:15:14.942,-47,-391,945,-2197,-732,-183
2025-10-11 16:15:14.943,-40,-388,941,-2319,-183,305
2025-10-11 16:15:14.943,-45,-374,941,-5249,854,-305
2025-10-11 16:15:14.990,-56,-423,956,-3540,427,-183
2025-10-11 16:15:14.991,-38,-417,941,2807,1403,183
2025-10-11 16:15:15.038,-53,-395,938,5737,1342,671
2025-10-11 16:15:15.038,-60,-390,940,6164,-793,366
2025-10-11 16:15:15.040,-46,-387,942,7324,-1403,732
2025-10-11 16:15:15.087,-41,-377,948,8117,-305,488
2025-10-11 16:15:15.088,-48,-346,942,3723,915,366
2025-10-11 16:15:15.149,-57,-360,942,-2807,1220,-549
2025-10-11 16:15:15.149,-51,-397,940,-1037,732,-244
2025-10-11 16:15:15.186,-53,-394,937,3662,-305,-244
2025-10-11 16:15:15.187,-58,-363,935,2807,-1281,-366
2025-10-11 16:15:15.187,-56,-375,946,2014,-1831,-671
2025-10-11 16:15:15.233,-52,-379,950,3845,-1403,-427
2025-10-11 16:15:15.234,-48,-364,942,3540,244,-671
2025-10-11 16:15:15.282,-49,-368,941,1892,1281,-1098
2025-10-11 16:15:15.283,-57,-377,941,1831,183,-1464
2025-10-11 16:15:15.284,-54,-379,937,3845,-1708,-1098
2025-10-11 16:15:15.330,-49,-370,939,3967,-1953,-1220
2025-10-11 16:15:15.331,-49,-367,948,2624,-1708,-671
2025-10-11 16:15:15.380,-46,-369,952,1098,-305,-427
2025-10-11 16:15:15.381,-45,-376,952,-671,549,-610
2025-10-11 16:15:15.382,-53,-383,950,854,183,-732
2025-10-11 16:15:15.443,-61,-379,947,3417,-976,-732
2025-10-11 16:15:15.444,-59,-373,954,4699,-2624,-488
2025-10-11 16:15:15.479,-47,-360,957,2197,-3112,-488
2025-10-11 16:15:15.479,-46,-378,961,1525,-1403,-488
2025-10-11 16:15:15.479,-62,-407,963,7385,-793,244
2025-10-11 16:15:15.526,-70,-417,971,17456,-3479,1037
2025-10-11 16:15:15.527,-58,-384,969,25390,-6103,854
2025-10-11 16:15:15.574,-49,-369,978,29907,-7690,1586
2025-10-11 16:15:15.575,-46,-363,986,-26840,-8483,3540
2025-10-11 16:15:15.623,-46,-365,981,-16403,-9948,4028
2025-10-11 16:15:15.624,-50,-361,966,-2304,-12573,4760
2025-10-11 16:15:15.624,-62,-372,949,18631,-16601,5981
2025-10-11 16:15:15.672,-81,-399,982,-12115,-26550,9155
2025-10-11 16:15:15.673,-51,-407,1030,-29921,24948,15136
2025-10-11 16:15:15.736,-4,-330,988,19456,17563,19226
2025-10-11 16:15:15.736,37,-101,892,-16661,18173,18859
2025-10-11 16:15:15.736,16,83,885,-12267,16342,16418
2025-10-11 16:15:15.771,32,165,890,-14769,5844,15319
2025-10-11 16:15:15.772,44,312,859,-16112,-2274,13000
2025-10-11 16:15:15.818,125,457,809,-30150,-6119,7751
2025-10-11 16:15:15.820,168,585,747,9751,1816,2197
2025-10-11 16:15:15.820,165,516,766,-3554,11337,2380
2025-10-11 16:15:15.867,181,485,767,6700,15488,9948
2025-10-11 16:15:15.867,217,638,731,9812,15793,15014
2025-10-11 16:15:15.916,225,651,673,3404,17807,13305
2025-10-11 16:15:15.916,235,604,624,16526,20126,12329
2025-10-11 16:15:15.965,277,674,533,-24962,23422,16723
2025-10-11 16:15:15.966,289,839,456,-28380,27695,12512
2025-10-11 16:15:15.966,293,1076,350,-30532,-31738,9277
2025-10-11 16:15:16.026,316,1084,351,-13824,-22399,12329
2025-10-11 16:15:16.026,316,1019,354,18936,-16357,13427
2025-10-11 16:15:16.062,339,1015,344,-3769,-10742,11901
2025-10-11 16:15:16.073,343,1087,295,-29343,-2990,9216
2025-10-11 16:15:16.073,301,1066,262,8239,4516,5187
2025-10-11 16:15:16.114,297,1023,279,-7385,5493,4211
2025-10-11 16:15:16.115,274,961,281,-15014,2197,2563
2025-10-11 16:15:16.159,281,867,279,-5371,-2075,549
2025-10-11 16:15:16.160,291,914,282,3845,-7019,976
2025-10-11 16:15:16.161,316,997,271,-4211,-4577,-1892
2025-10-11 16:15:16.209,317,980,266,-14404,549,-1770
2025-10-11 16:15:16.209,308,900,285,-13061,3784,427
2025-10-11 16:15:16.257,302,871,285,-4577,1770,3356
2025-10-11 16:15:16.257,306,922,282,3173,1037,2807
2025-10-11 16:15:16.258,302,993,281,-3540,1098,2075
2025-10-11 16:15:16.316,303,980,287,-13549,1220,915
2025-10-11 16:15:16.316,311,929,301,-15319,1098,1159
2025-10-11 16:15:16.363,311,911,312,-9765,2197,1037
2025-10-11 16:15:16.363,319,927,325,-5676,2929,183
2025-10-11 16:15:16.403,310,948,322,-9948,3723,610
2025-10-11 16:15:16.404,297,888,329,-6286,3662,671
2025-10-11 16:15:16.405,308,896,344,2990,1281,244
2025-10-11 16:15:16.452,318,958,333,3662,0,-244
2025-10-11 16:15:16.453,309,959,325,-4394,915,-1525
2025-10-11 16:15:16.501,318,915,341,-7812,1159,-793
2025-10-11 16:15:16.503,311,873,338,-1831,2075,-366
2025-10-11 16:15:16.505,315,904,336,3234,1892,793
2025-10-11 16:15:16.551,319,966,337,-2319,2563,-732
2025-10-11 16:15:16.552,322,975,339,-30029,5737,-2075
2025-10-11 16:15:16.619,284,926,333,-22277,7812,-2868
2025-10-11 16:15:16.619,299,928,348,-22583,8178,-4272
2025-10-11 16:15:16.619,300,935,360,-26123,7080,-5065
2025-10-11 16:15:16.658,291,913,368,-27526,6408,-5554
2025-10-11 16:15:16.658,301,946,372,-31005,6225,-5065
2025-10-11 16:15:16.696,326,1051,378,17624,8972,-5554
2025-10-11 16:15:16.697,319,1114,366,-14236,16723,-11352
2025-10-11 16:15:16.745,286,999,377,28045,23132,-15930
2025-10-11 16:15:16.746,258,857,409,25543,22766,-17639
2025-10-11 16:15:16.746,271,892,476,10528,16723,-15869
2025-10-11 16:15:16.794,262,936,500,518,19104,-20812
2025-10-11 16:15:16.795,273,792,532,1678,26916,-24353
2025-10-11 16:15:16.842,243,740,582,13641,-31113,-24536
2025-10-11 16:15:16.842,239,831,636,579,-28488,-26672
2025-10-11 16:15:16.843,197,868,629,20583,-32089,-29968
2025-10-11 16:15:16.891,162,634,646,-2183,30517,-30273
2025-10-11 16:15:16.891,166,529,728,3005,22094,-25146
2025-10-11 16:15:16.946,173,643,766,-18785,16174,-19958
2025-10-11 16:15:16.946,165,675,780,-10439,18920,-23193
2025-10-11 16:15:16.946,154,417,812,12739,25634,-20629
2025-10-11 16:15:16.989,141,-85,872,-16969,30883,-17517
2025-10-11 16:15:16.991,81,-142,932,26854,28930,-17272
2025-10-11 16:15:17.037,52,-137,941,-12315,23315,-17456
2025-10-11 16:15:17.038,51,-263,957,17531,20690,-13854
2025-10-11 16:15:17.038,75,-339,970,-7172,22033,-8117
2025-10-11 16:15:17.086,50,-267,966,21087,24963,-3112
2025-10-11 16:15:17.087,53,-223,970,20782,26306,-2014
2025-10-11 16:15:17.134,31,-266,978,12176,23925,-2441
2025-10-11 16:15:17.135,26,-303,954,5279,19653,-2136
2025-10-11 16:15:17.207,14,-400,935,8209,18127,488
2025-10-11 16:15:17.207,17,-455,929,21942,16540,366
2025-10-11 16:15:17.207,25,-592,934,-25528,16235,-122
2025-10-11 16:15:17.232,7,-611,900,2731,16906,2075
2025-10-11 16:15:17.233,-5,-651,907,-28381,17883,5065
2025-10-11 16:15:17.281,-26,-654,942,8239,12817,6408
2025-10-11 16:15:17.281,-12,-586,920,-30197,8544,7385
2025-10-11 16:15:17.283,-18,-517,901,-14328,7446,7141
2025-10-11 16:15:17.330,-16,-483,928,-8163,7202,7446
2025-10-11 16:15:17.331,-21,-420,938,-11093,4394,7629
2025-10-11 16:15:17.378,-3,-372,933,-25131,4333,5371
2025-10-11 16:15:17.379,-25,-375,945,18005,4699,4394
2025-10-11 16:15:17.380,-17,-415,953,15747,3662,4638
2025-10-11 16:15:17.427,-16,-420,940,21484,3784,5798
2025-10-11 16:15:17.427,-29,-401,935,30517,3295,4577
2025-10-11 16:15:17.494,-39,-326,932,27770,1037,4150
2025-10-11 16:15:17.494,-31,-314,946,18249,-732,-488
2025-10-11 16:15:17.528,-19,-321,948,9582,-1892,-366
2025-10-11 16:15:17.528,-13,-360,954,8605,-366,-122
2025-10-11 16:15:17.528,-21,-375,953,11596,976,1037
2025-10-11 16:15:17.574,-23,-390,964,19042,671,1159
2025-10-11 16:15:17.574,-25,-303,952,22094,-122,1525
2025-10-11 16:15:17.622,-25,-269,956,12451,-1464,-1281
2025-10-11 16:15:17.622,-20,-297,961,3356,-2136,-1647
2025-10-11 16:15:17.623,-22,-333,966,1831,-1586,-549
2025-10-11 16:15:17.670,-18,-359,977,8422,-610,-244
2025-10-11 16:15:17.671,-26,-355,980,16845,-610,183
2025-10-11 16:15:17.720,-24,-323,971,20996,-610,732
2025-10-11 16:15:17.720,-28,-269,965,16540,-305,427
2025-10-11 16:15:17.721,-27,-265,966,8666,-244,-1159
2025-10-11 16:15:17.768,-38,-275,971,2380,-1342,-2014
2025-10-11 16:15:17.785,-20,-328,975,3662,-1098,-732
2025-10-11 16:15:17.820,-34,-328,974,9643,183,732
2025-10-11 16:15:17.820,-33,-312,981,15197,549,671
2025-10-11 16:15:17.820,-31,-264,971,14099,122,-427
2025-10-11 16:15:17.866,-26,-251,953,5004,976,-976
2025-10-11 16:15:17.867,-33,-297,952,-3540,549,-2258
2025-10-11 16:15:17.915,-35,-326,958,-7141,-2197,793
2025-10-11 16:15:17.916,-33,-340,970,-4943,-4028,2197
2025-10-11 16:15:17.916,-31,-317,975,-488,-3417,2807
2025-10-11 16:15:17.963,-27,-300,975,2868,-305,2685
2025-10-11 16:15:17.964,-38,-289,983,3112,61,2807
2025-10-11 16:15:18.012,-35,-278,982,2502,-1831,2685
2025-10-11 16:15:18.013,-30,-274,981,1403,-2746,2563
2025-10-11 16:15:18.074,-28,-286,988,2502,-3295,2624
2025-10-11 16:15:18.074,-23,-292,989,6408,-3051,2746
2025-10-11 16:15:18.074,-16,-281,988,10437,-2014,2014
2025-10-11 16:15:18.111,-26,-259,989,11352,-1342,2380
2025-10-11 16:15:18.111,-24,-256,994,9521,-2014,1098
2025-10-11 16:15:18.159,-12,-245,987,6286,-1892,1159
2025-10-11 16:15:18.160,-16,-243,990,-14587,-793,1281
2025-10-11 16:15:18.160,-20,-267,997,854,-1159,1037
2025-10-11 16:15:18.208,-25,-267,992,4028,-1831,183
2025-10-11 16:15:18.208,-10,-271,991,7507,-1647,-183
2025-10-11 16:15:18.256,-10,-258,983,9521,-427,-549
2025-10-11 16:15:18.256,-17,-249,987,8483,122,-244
2025-10-11 16:15:18.304,-18,-235,985,4638,-610,-793
2025-10-11 16:15:18.305,-19,-246,984,1098,-1586,-1098
2025-10-11 16:15:18.306,-20,-270,990,1464,-2136,-122
2025-10-11 16:15:18.365,-14,-267,996,3906,-2197,854
2025-10-11 16:15:18.365,-9,-244,990,3906,549,-305
2025-10-11 16:15:18.412,-18,-244,984,1220,1525,-915
2025-10-11 16:15:18.412,-20,-252,980,2136,610,-1586
2025-10-11 16:15:18.412,-20,-259,975,4150,-854,-1647
2025-10-11 16:15:18.451,-14,-259,981,6347,-2075,-1525
2025-10-11 16:15:18.452,-17,-261,994,8850,-2624,-1220
2025-10-11 16:15:18.500,-11,-242,996,9521,-1708,-671
2025-10-11 16:15:18.501,-13,-226,993,4821,61,-854
2025-10-11 16:15:18.501,-22,-248,997,1342,427,-1159
2025-10-11 16:15:18.549,-27,-276,1002,3784,-976,61
2025-10-11 16:15:18.550,-29,-277,1011,9033,-3112,2502
2025-10-11 16:15:18.598,-11,-241,1004,12878,-1770,2807
2025-10-11 16:15:18.598,-3,-214,990,7568,549,2380
2025-10-11 16:15:18.599,-17,-220,984,1831,976,1708
2025-10-11 16:15:18.657,-11,-250,981,1647,183,2014
2025-10-11 16:15:18.657,-15,-232,973,4150,-915,2868
2025-10-11 16:15:18.704,-37,-214,981,3723,-2502,2868
2025-10-11 16:15:18.704,-21,-211,992,4394,-3417,1770
2025-10-11 16:15:18.743,-11,-207,996,4272,-2136,1281
2025-10-11 16:15:18.744,-12,-209,1002,976,-915,366
2025-10-11 16:15:18.745,-16,-224,1004,-1708,-1281,1098
2025-10-11 16:15:18.792,-16,-237,1009,488,-2075,1098
2025-10-11 16:15:18.792,-17,-217,1008,1647,-1953,1281
2025-10-11 16:15:18.841,-17,-210,1017,671,-1831,488
2025-10-11 16:15:18.841,-8,-216,1014,427,-976,183
2025-10-11 16:15:18.842,-15,-228,1022,1037,-305,305
2025-10-11 16:15:18.890,-7,-229,1016,2380,-488,-427
2025-10-11 16:15:18.890,0,-221,1006,2319,183,366
2025-10-11 16:15:18.948,-14,-222,1004,1342,366,1159
2025-10-11 16:15:18.948,-5,-210,1003,244,488,1037
2025-10-11 16:15:18.948,-13,-206,996,15563,549,-488
2025-10-11 16:15:18.995,-17,-220,993,1525,-305,-915
2025-10-11 16:15:18.995,-15,-227,992,2624,-305,-610
2025-10-11 16:15:19.036,-15,-229,1003,3845,-610,-488
2025-10-11 16:15:19.036,-10,-231,1008,3784,-915,244
2025-10-11 16:15:19.085,-9,-217,1005,2441,-427,671
2025-10-11 16:15:19.085,-4,-220,1001,122,1098,610
2025-10-11 16:15:19.086,-11,-217,998,732,1770,122
2025-10-11 16:15:19.134,-13,-216,993,854,1037,0
2025-10-11 16:15:19.134,-13,-218,992,488,-366,0
2025-10-11 16:15:19.182,-12,-213,994,-366,-915,610
2025-10-11 16:15:19.182,-7,-220,1002,549,-488,976
2025-10-11 16:15:19.183,-2,-207,995,1770,671,549
2025-10-11 16:15:19.237,-10,-200,993,2319,1281,0
2025-10-11 16:15:19.237,-16,-203,992,2258,61,-61
2025-10-11 16:15:19.284,-22,-214,996,2685,-2075,-183
2025-10-11 16:15:19.284,-14,-204,999,3662,-2685,-61
2025-10-11 16:15:19.284,-4,-192,1001,1770,-1037,-854
2025-10-11 16:15:19.328,-6,-197,1011,-61,244,-671
2025-10-11 16:15:19.329,-10,-211,1007,366,671,-793
2025-10-11 16:15:19.377,-7,-212,1004,1098,1098,-122
2025-10-11 16:15:19.378,-9,-202,1000,0,732,-488
2025-10-11 16:15:19.379,-14,-203,997,-793,61,-671
2025-10-11 16:15:19.426,-15,-216,1000,671,-305,-1037
2025-10-11 16:15:19.426,-10,-209,1000,1892,-427,-1281
2025-10-11 16:15:19.474,-11,-204,998,244,61,-1708
2025-10-11 16:15:19.475,-13,-216,995,-671,305,-1342
2025-10-11 16:15:19.528,-12,-222,995,793,244,-1037
2025-10-11 16:15:19.528,-12,-212,989,1464,0,-427
2025-10-11 16:15:19.531,-17,-205,985,427,-366,-793
2025-10-11 16:15:19.584,-19,-220,990,1159,-854,-854
2025-10-11 16:15:19.584,-17,-214,998,4455,-1647,-732
2025-10-11 16:15:19.621,-14,-209,1003,3173,-1708,-854
2025-10-11 16:15:19.623,-12,-204,1007,1708,-1342,-122
2025-10-11 16:15:19.623,-15,-207,1011,1037,-488,-305
2025-10-11 16:15:19.670,-23,-213,1014,1037,-549,-366
2025-10-11 16:15:19.671,-19,-219,1018,1892,-976,-427
2025-10-11 16:15:19.719,0,-222,1018,3295,-488,183
2025-10-11 16:15:19.719,0,-208,1009,2502,976,305
2025-10-11 16:15:19.720,-6,-204,994,-244,1953,976
2025-10-11 16:15:19.767,-17,-208,989,15380,-61,854
2025-10-11 16:15:19.767,-15,-206,988,3051,-2441,244
2025-10-11 16:15:19.840,-15,-186,989,3601,-3112,-183
2025-10-11 16:15:19.840,-21,-194,1003,3173,-2624,-610
2025-10-11 16:15:19.865,-17,-209,1018,6469,-2563,0
2025-10-11 16:15:19.866,-9,-210,1017,9887,-2502,-122
2025-10-11 16:15:19.868,-18,-213,1009,13916,-2563,-549
2025-10-11 16:15:19.914,-31,-239,1023,23376,-5187,488
2025-10-11 16:15:19.914,-15,-234,1027,-28183,-8850,1220
2025-10-11 16:15:19.962,-10,-191,1024,-16586,-10070,2136
2025-10-11 16:15:19.963,-6,-168,1022,-8713,-10131,1770
2025-10-11 16:15:19.963,-15,-161,1007,6241,-11230,3479
2025-10-11 16:15:20.011,-11,-218,1021,30289,-15747,6835
2025-10-11 16:15:20.012,-3,-183,989,-4791,-22094,10253
2025-10-11 16:15:20.059,14,-101,980,18281,-28930,13916
2025-10-11 16:15:20.060,40,39,936,21637,31357,14831
2025-10-11 16:15:20.061,35,211,928,1740,28671,12207
2025-10-11 16:15:20.133,67,314,941,-31951,26230,12756
2025-10-11 16:15:20.133,98,386,935,-2792,28488,8728
2025-10-11 16:15:20.160,104,356,951,-28671,-32592,3845
2025-10-11 16:15:20.160,100,268,979,-19394,-30029,671
2025-10-11 16:15:20.160,110,182,953,-10605,-29785,-366
2025-10-11 16:15:20.207,90,184,927,15701,-31188,-549
2025-10-11 16:15:20.208,74,67,936,-6195,26840,-1831
2025-10-11 16:15:20.255,98,-37,946,5723,12985,1159
2025-10-11 16:15:20.255,144,79,856,19655,-4837,3967
2025-10-11 16:15:20.304,187,385,728,-10786,-18204,915
2025-10-11 16:15:20.304,204,613,607,-17866,-25101,-5615
2025-10-11 16:15:20.305,257,559,509,-7551,-24307,-7507
2025-10-11 16:15:20.352,342,842,413,1970,-23697,-854
2025-10-11 16:15:20.353,380,1229,300,31785,2243,-6408
2025-10-11 16:15:20.424,420,1362,301,3571,30685,-2380
2025-10-11 16:15:20.424,413,1185,337,11124,-10559,5859
2025-10-11 16:15:20.424,364,1015,338,-10117,-915,5065
2025-10-11 16:15:20.450,318,976,320,-18417,-1037,3234
2025-10-11 16:15:20.450,314,1068,289,28381,-4089,2136
2025-10-11 16:15:20.500,325,1092,251,-5615,-488,427
2025-10-11 16:15:20.500,296,906,269,-17089,4089,-1892
2025-10-11 16:15:20.500,308,814,303,-2929,1281,305
2025-10-11 16:15:20.547,328,910,292,6713,-366,0
2025-10-11 16:15:20.548,310,983,264,-8056,3051,-244
2025-10-11 16:15:20.596,299,872,287,-3601,1708,183
2025-10-11 16:15:20.596,320,920,293,3295,-1220,1220
2025-10-11 16:15:20.644,333,972,285,-915,-549,0
2025-10-11 16:15:20.645,332,927,283,-3356,2807,-976
2025-10-11 16:15:20.645,333,898,301,1953,3662,61
2025-10-11 16:15:20.714,321,916,297,5676,1892,-183
2025-10-11 16:15:20.714,322,952,286,2441,-854,305
2025-10-11 16:15:20.744,312,951,276,-3784,-488,0
2025-10-11 16:15:20.744,321,925,281,-3967,915,732
2025-10-11 16:15:20.744,316,928,289,-1525,2563,427
2025-10-11 16:15:20.792,313,942,298,-5615,2014,-244
2025-10-11 16:15:20.792,301,886,293,-3845,1586,-610
2025-10-11 16:15:20.840,308,918,305,-244,610,488
2025-10-11 16:15:20.841,316,942,299,-1281,2319,366
2025-10-11 16:15:20.841,307,904,303,-1220,3601,244
2025-10-11 16:15:20.889,312,898,301,2197,3540,1403
2025-10-11 16:15:20.889,315,918,308,4394,3417,1953
2025-10-11 16:15:20.938,317,955,297,2380,3967,1220
2025-10-11 16:15:20.938,311,944,286,-1708,5737,61
2025-10-11 16:15:20.939,301,927,298,-2014,3356,-305
2025-10-11 16:15:21.006,306,920,306,-1892,1220,-244
2025-10-11 16:15:21.006,313,947,297,-6103,1403,-122
2025-10-11 16:15:21.037,313,898,305,-9033,2685,122
2025-10-11 16:15:21.038,319,877,327,-2380,3295,1708
2025-10-11 16:15:21.038,321,942,322,-2075,3906,1892
2025-10-11 16:15:21.084,328,1009,314,-14404,7263,1403
2025-10-11 16:15:21.084,318,976,317,-27404,10864,305
2025-10-11 16:15:21.132,316,886,347,-22216,12268,-183
2025-10-11 16:15:21.133,310,915,362,-14465,10192,-671
2025-10-11 16:15:21.181,329,1022,352,27756,10192,-2380
2025-10-11 16:15:21.182,355,1237,328,-24124,17089,-3723
2025-10-11 16:15:21.182,321,1201,322,-29694,25146,-6896
2025-10-11 16:15:21.229,296,941,396,-5479,28564,-3723
2025-10-11 16:15:21.230,329,738,526,4348,31250,366
2025-10-11 16:15:21.296,327,735,564,20278,-28122,-4394
2025-10-11 16:15:21.296,213,653,522,23147,-23605,-10070
2025-10-11 16:15:21.296,170,601,634,25222,30883,-3906
2025-10-11 16:15:21.330,229,481,743,-28901,17028,-2075
2025-10-11 16:15:21.330,264,469,772,-10346,10375,-6591
2025-10-11 16:15:21.379,225,532,739,2410,14404,-9216
2025-10-11 16:15:21.379,234,491,840,946,17578,-7873
2025-10-11 16:15:21.425,243,494,877,1129,21240,-7568
2025-10-11 16:15:21.426,210,621,910,-22675,24047,-1892
2025-10-11 16:15:21.426,219,602,927,-5479,25329,-1586
2025-10-11 16:15:21.474,216,388,897,29906,30395,-3051
2025-10-11 16:15:21.475,172,107,941,-19822,-29037,-3601
2025-10-11 16:15:21.522,155,18,1037,18081,-30380,3417
2025-10-11 16:15:21.523,161,79,1048,-25422,32653,7690
2025-10-11 16:15:21.524,157,209,949,15273,-29587,7873
2025-10-11 16:15:21.586,152,19,945,-9690,-22385,5126
2025-10-11 16:15:21.586,113,-269,1008,18203,-22385,6713
2025-10-11 16:15:21.622,100,-229,993,31142,-25497,7141
2025-10-11 16:15:21.624,86,-239,946,27480,-26352,5126
2025-10-11 16:15:21.624,84,-332,838,24795,-19943,3051
2025-10-11 16:15:21.670,69,-604,878,-4426,-13718,3906
2025-10-11 16:15:21.672,33,-646,898,-11795,-16159,5920
2025-10-11 16:15:21.717,12,-478,874,7736,-24521,3540
2025-10-11 16:15:21.719,-10,-366,843,-13504,32287,-3295
2025-10-11 16:15:21.720,-29,-539,868,-15030,24414,-4760
2025-10-11 16:15:21.766,-37,-671,873,-19165,17089,1586
2025-10-11 16:15:21.768,-29,-703,873,32226,15686,7324
2025-10-11 16:15:21.816,-52,-546,874,-7248,12756,11169
2025-10-11 16:15:21.816,-45,-402,867,-23361,6896,3173
2025-10-11 16:15:21.817,-33,-407,888,12329,1037,-3845
2025-10-11 16:15:21.898,-31,-512,887,2380,-732,-3356
2025-10-11 16:15:21.898,-24,-571,886,13793,1586,1953
2025-10-11 16:15:21.915,-31,-543,881,25756,3601,4943
2025-10-11 16:15:21.915,-39,-478,891,26733,1953,3173
2025-10-11 16:15:21.972,-40,-438,889,21057,-549,2868
2025-10-11 16:15:21.972,-36,-436,901,9948,-3723,610
2025-10-11 16:15:21.972,-36,-479,914,10131,-4150,732
2025-10-11 16:15:22.010,-31,-481,923,14831,-3662,2136
2025-10-11 16:15:22.010,-32,-444,920,15686,-2075,2502
2025-10-11 16:15:22.059,-34,-432,927,13488,-427,2624
2025-10-11 16:15:22.060,-34,-411,921,6713,976,610
2025-10-11 16:15:22.060,-44,-430,925,976,732,-671
2025-10-11 16:15:22.107,-46,-469,926,3906,-1281,-122
2025-10-11 16:15:22.108,-46,-434,919,5493,-4028,366
2025-10-11 16:15:22.156,-31,-451,924,5187,-3356,-183
2025-10-11 16:15:22.157,-21,-455,922,12145,1525,2197
2025-10-11 16:15:22.158,-43,-438,916,16052,2197,2807
2025-10-11 16:15:22.212,-45,-433,919,19531,366,2746
2025-10-11 16:15:22.212,-40,-414,918,22094,-1464,2136
2025-10-11 16:15:22.254,-30,-388,915,20507,-2502,1525
2025-10-11 16:15:22.254,-25,-364,910,11535,-1708,366
2025-10-11 16:15:22.302,-24,-382,910,2380,-610,-366
2025-10-11 16:15:22.302,-28,-430,905,3356,-244,-366
2025-10-11 16:15:22.303,-34,-448,902,14404,-1464,2197
2025-10-11 16:15:22.351,-46,-413,914,23803,-3173,3295
2025-10-11 16:15:22.351,-48,-364,931,22399,-5187,1953
2025-10-11 16:15:22.399,-32,-338,947,16357,-4211,-183
2025-10-11 16:15:22.400,-34,-350,960,13488,-2563,-244
2025-10-11 16:15:22.401,-37,-361,970,13427,-915,183
2025-10-11 16:15:22.448,-35,-352,977,11718,-183,-183
2025-10-11 16:15:22.449,-34,-355,980,8483,-488,-671
2025-10-11 16:15:22.508,-33,-346,971,4821,-427,-549
2025-10-11 16:15:22.508,-31,-359,969,2929,122,-488
2025-10-11 16:15:22.508,-33,-366,971,5126,-61,488
2025-10-11 16:15:22.547,-28,-366,968,7629,-244,671
2025-10-11 16:15:22.549,-30,-373,972,12634,-1525,2136
2025-10-11 16:15:22.595,-29,-341,963,12451,-2075,3112
2025-10-11 16:15:22.595,-26,-334,962,9765,-2441,3601
2025-10-11 16:15:22.643,-29,-340,959,10009,-3234,2563
2025-10-11 16:15:22.644,-35,-320,955,10375,-4150,1708
2025-10-11 16:15:22.645,-33,-289,959,4760,-4089,-1159
2025-10-11 16:15:22.692,-23,-319,976,1403,-2807,-1037
2025-10-11 16:15:22.693,-23,-326,975,2075,-1098,-366
2025-10-11 16:15:22.741,-24,-330,975,4211,0,1098
2025-10-11 16:15:22.742,-29,-334,977,8117,183,1464
2025-10-11 16:15:22.743,-31,-320,979,14404,-1220,2563
2025-10-11 16:15:22.791,-25,-296,980,11962,-1892,366
2025-10-11 16:15:22.791,-16,-292,974,8483,-305,-915
2025-10-11 16:15:22.839,-10,-297,973,6103,2197,-549
2025-10-11 16:15:22.840,-24,-298,967,3967,2075,-122
2025-10-11 16:15:22.840,-26,-302,966,2441,61,488
2025-10-11 16:15:22.887,-31,-304,969,3540,-2380,183
2025-10-11 16:15:22.888,-24,-303,972,6713,-2929,305
2025-10-11 16:15:22.936,-20,-289,975,8300,-1892,-61
2025-10-11 16:15:22.936,-20,-275,972,5432,-671,-122
2025-10-11 16:15:22.984,-30,-283,979,2929,-427,-366
2025-10-11 16:15:22.985,-24,-289,983,5126,-122,-244
2025-10-11 16:15:22.986,-23,-290,981,5615,0,61
2025-10-11 16:15:23.046,-23,-299,981,6713,0,549
2025-10-11 16:15:23.046,-31,-276,978,6408,-549,427
2025-10-11 16:15:23.086,-32,-255,971,1098,-1281,-915
2025-10-11 16:15:23.086,-31,-276,977,-1770,-1586,-1525
2025-10-11 16:15:23.086,-19,-303,975,1220,-854,-1220
2025-10-11 16:15:23.131,-26,-295,978,4760,-915,-427
2025-10-11 16:15:23.131,-28,-289,977,6164,-1831,0
2025-10-11 16:15:23.179,-23,-259,977,671,-1586,-1281
2025-10-11 16:15:23.180,-20,-272,983,-3479,-549,-1647
2025-10-11 16:15:23.181,-25,-302,986,-1342,-122,-1403
2025-10-11 16:15:23.229,-27,-296,985,3112,-488,-244
2025-10-11 16:15:23.229,-20,-280,981,4821,-976,-671
2025-10-11 16:15:23.277,-20,-276,982,4760,-1159,-732
2025-10-11 16:15:23.278,-22,-278,986,4760,-1525,-61
2025-10-11 16:15:23.279,-16,-281,986,4699,-1220,-305
2025-10-11 16:15:23.330,-20,-277,988,5371,-732,122
2025-10-11 16:15:23.330,-18,-267,984,5981,-183,-305
2025-10-11 16:15:23.379,-24,-266,987,6408,-1037,-732
2025-10-11 16:15:23.379,-21,-263,987,4211,-1953,-915
2025-10-11 16:15:23.424,-18,-262,994,793,-1953,-1037
2025-10-11 16:15:23.425,-12,-272,997,-305,-915,-854
2025-10-11 16:15:23.425,-13,-274,994,1708,427,-61
2025-10-11 16:15:23.472,-18,-260,995,2197,610,-671
2025-10-11 16:15:23.473,-21,-266,999,1220,-61,-976
2025-10-11 16:15:23.521,-15,-265,997,-305,-671,-671
2025-10-11 16:15:23.521,-16,-272,995,-2319,-732,-488
2025-10-11 16:15:23.522,-18,-282,992,-1098,-549,-244
2025-10-11 16:15:23.569,-15,-277,993,2380,305,-427
2025-10-11 16:15:23.570,-13,-273,987,2990,610,305
2025-10-11 16:15:23.623,-19,-270,985,3173,915,610
2025-10-11 16:15:23.623,-21,-274,987,3784,793,488
2025-10-11 16:15:23.623,-20,-267,983,4882,-61,244
2025-10-11 16:15:23.673,-21,-259,980,4455,-427,427
2025-10-11 16:15:23.673,-16,-256,979,2929,-183,244
2025-10-11 16:15:23.716,-15,-253,977,793,-122,549
2025-10-11 16:15:23.716,-16,-255,977,-793,-549,122
2025-10-11 16:15:23.764,-17,-267,976,427,-671,61
2025-10-11 16:15:23.765,-25,-259,980,3051,-1525,183
2025-10-11 16:15:23.766,-17,-250,984,2258,-2014,-61
2025-10-11 16:15:23.814,-16,-246,988,1586,-2075,-366
2025-10-11 16:15:23.814,-19,-243,991,1525,-1403,-244
2025-10-11 16:15:23.862,-12,-241,992,793,-854,-183
2025-10-11 16:15:23.863,-16,-242,991,-610,-305,-1220
2025-10-11 16:15:23.864,-20,-257,991,244,-366,-1220
2025-10-11 16:15:23.915,-19,-256,993,1586,-1342,-1525
2025-10-11 16:15:23.915,-17,-254,992,1770,-1953,-1525
2025-10-11 16:15:23.961,-14,-251,990,1098,-1525,-610
2025-10-11 16:15:23.961,-14,-258,997,1098,-427,-549
2025-10-11 16:15:23.961,-11,-251,999,1342,-549,-793
2025-10-11 16:15:24.009,-15,-246,992,732,-305,-1220
2025-10-11 16:15:24.009,-17,-255,998,305,-1098,-793
2025-10-11 16:15:24.057,-13,-255,995,-61,-1342,-610
2025-10-11 16:15:24.057,-10,-255,993,-854,-610,-488
2025-10-11 16:15:24.058,-16,-263,1006,-61,-122,61
2025-10-11 16:15:24.106,-20,-264,1015,1708,-244,427
2025-10-11 16:15:24.106,-11,-257,1014,2685,671,0
2025-10-11 16:15:24.155,-9,-258,1006,2746,2075,183
2025-10-11 16:15:24.155,-5,-254,997,976,1953,366
2025-10-11 16:15:24.206,-6,-251,973,-244,1342,122
2025-10-11 16:15:24.206,-7,-258,968,-793,732,-183
2025-10-11 16:15:24.206,-22,-261,970,366,-122,-183
2025-10-11 16:15:24.255,-20,-261,976,732,-976,488
2025-10-11 16:15:24.255,-14,-253,975,-305,-305,915
2025-10-11 16:15:24.301,-17,-266,981,183,122,1159
2025-10-11 16:15:24.302,-25,-260,986,2929,-1159,1403
2025-10-11 16:15:24.303,-18,-248,984,3479,-2502,1037
2025-10-11 16:15:24.349,-10,-232,978,671,-2075,854
2025-10-11 16:15:24.350,-19,-257,989,4638,-1770,366
2025-10-11 16:15:24.398,-17,-245,996,7385,-3295,610
2025-10-11 16:15:24.399,-14,-246,996,7141,-3906,0
2025-10-11 16:15:24.399,-14,-259,997,10681,-4089,1098
2025-10-11 16:15:24.447,-22,-287,1017,22155,-5920,2258
2025-10-11 16:15:24.447,-22,-313,1036,-18784,-8728,7019
2025-10-11 16:15:24.497,-35,-284,1037,10330,-12390,10742
2025-10-11 16:15:24.497,-31,-295,1026,-15838,-15563,16906
2025-10-11 16:15:24.547,-47,-253,1014,-31691,-22766,22155
2025-10-11 16:15:24.547,-48,-137,990,14024,31296,28137
2025-10-11 16:15:24.547,-36,-47,941,-1463,11398,29479
2025-10-11 16:15:24.642,23,118,863,16603,-1114,27648
2025-10-11 16:15:24.643,71,247,852,21608,-11368,24353
2025-10-11 16:15:24.643,139,405,824,10194,-15335,17089
2025-10-11 16:15:24.644,161,522,766,-11168,-10147,9155
2025-10-11 16:15:24.691,179,537,772,-25511,-4471,11352
2025-10-11 16:15:24.692,212,524,740,-18248,-1297,14709
2025-10-11 16:15:24.692,260,654,644,-16051,1450,15075
2025-10-11 16:15:24.739,241,764,568,30931,8835,13854
2025-10-11 16:15:24.740,270,747,538,19944,11215,13916
2025-10-11 16:15:24.741,305,810,479,8714,15793,14587
2025-10-11 16:15:24.790,323,1036,376,-23147,20920,11230
2025-10-11 16:15:24.790,361,1138,335,-7476,30685,8911
2025-10-11 16:15:24.837,343,1143,306,6363,-23010,3845
2025-10-11 16:15:24.838,342,1084,319,31188,-16052,4028
2025-10-11 16:15:24.840,335,995,306,9277,-10986,610
2025-10-11 16:15:24.886,314,894,311,5615,-7690,-1037
2025-10-11 16:15:24.887,304,810,310,20690,-6774,2685
2025-10-11 16:15:24.935,335,925,302,28930,-8605,4577
2025-10-11 16:15:24.935,339,1017,265,12573,-5371,732
2025-10-11 16:15:24.984,338,1031,247,-17578,1831,-1220
2025-10-11 16:15:24.984,330,810,293,-427,2441,5310
2025-10-11 16:15:24.984,336,943,291,9399,1831,4882
2025-10-11 16:15:25.032,336,1070,264,-8300,5187,2868
2025-10-11 16:15:25.033,308,972,264,-23132,6835,-427
2025-10-11 16:15:25.082,299,851,303,-11962,2868,1647
2025-10-11 16:15:25.083,316,888,307,3723,-1586,1525
2025-10-11 16:15:25.083,329,955,282,4943,-122,793
2025-10-11 16:15:25.131,343,982,280,-3784,4821,1525
2025-10-11 16:15:25.131,324,934,304,-10314,8666,915
2025-10-11 16:15:25.227,317,883,334,-2624,3967,2136
2025-10-11 16:15:25.228,312,952,297,-3784,2075,-732
2025-10-11 16:15:25.228,315,930,292,-5126,2380,-488
2025-10-11 16:15:25.229,328,915,304,-2746,5004,0
2025-10-11 16:15:25.276,326,920,318,-1892,7019,1159
2025-10-11 16:15:25.277,322,917,321,-4699,8422,915
2025-10-11 16:15:25.278,310,887,331,-4516,7690,1770
2025-10-11 16:15:25.278,302,848,340,5004,4028,1953
2025-10-11 16:15:25.325,302,903,326,10925,-1220,1037
2025-10-11 16:15:25.325,327,992,302,3417,-2502,671
2025-10-11 16:15:25.378,338,1005,302,-17700,4272,-1464
2025-10-11 16:15:25.378,314,786,355,-2197,4028,549
2025-10-11 16:15:25.424,322,887,333,16357,854,1525
2025-10-11 16:15:25.424,331,1050,293,2929,2502,-976
2025-10-11 16:15:25.425,332,1045,293,-23925,7202,-5065
2025-10-11 16:15:25.471,290,864,324,-29602,7629,-4699
2025-10-11 16:15:25.471,299,773,360,-5310,2746,549
2025-10-11 16:15:25.520,314,949,329,4882,-122,366
2025-10-11 16:15:25.520,344,1065,307,-16784,5615,-2136
2025-10-11 16:15:25.521,382,1139,336,9628,14831,-2746
2025-10-11 16:15:25.568,402,1270,351,32058,-32150,-11230
2025-10-11 16:15:25.569,411,1286,318,1097,-14450,-19042
2025-10-11 16:15:25.618,371,1086,369,-6487,1175,-24291
2025-10-11 16:15:25.618,315,841,455,22916,8133,-26794
2025-10-11 16:15:25.658,230,588,531,20231,7278,-27404
2025-10-11 16:15:25.671,188,403,638,-23638,2396,-23559
2025-10-11 16:15:25.671,192,267,698,4560,-900,-22949
2025-10-11 16:15:25.715,121,97,763,-28322,-3647,-20263
2025-10-11 16:15:25.716,63,-64,859,14647,-10239,-10314
2025-10-11 16:15:25.763,23,-200,981,6423,-20859,61
2025-10-11 16:15:25.764,34,-241,1056,-25040,29296,1708
2025-10-11 16:15:25.765,51,-10,1019,6943,27343,-2868
2025-10-11 16:15:25.812,35,61,1006,6882,27038,-6164
2025-10-11 16:15:25.813,27,97,1014,-14969,23254,-7385
2025-10-11 16:15:25.861,47,109,1023,3692,18737,-9033
2025-10-11 16:15:25.861,84,-108,1028,-24506,20385,-6530
2025-10-11 16:15:25.862,78,-312,991,-12055,30334,-1586
2025-10-11 16:15:25.910,24,-399,1002,24993,-27817,3234
2025-10-11 16:15:25.910,-30,-223,976,-26749,-30197,1647
2025-10-11 16:15:25.961,-34,-136,914,5096,29296,-5004
2025-10-11 16:15:25.961,-30,-325,868,-3754,26489,-5065
2025-10-11 16:15:25.961,-57,-683,882,-13504,25512,-61
2025-10-11 16:15:26.008,-86,-736,947,-2502,13916,1708
2025-10-11 16:15:26.008,-85,-547,881,-17319,1037,1892
2025-10-11 16:15:26.056,-83,-354,863,-7309,-5432,305
2025-10-11 16:15:26.057,-50,-322,971,-21652,-14648,-1892
2025-10-11 16:15:26.104,20,-266,976,20507,-15014,-3479
2025-10-11 16:15:26.105,40,-302,940,-2624,-2014,-2624
2025-10-11 16:15:26.106,2,-396,975,-8422,6469,-915
2025-10-11 16:15:26.154,-34,-431,979,-183,4699,366
2025-10-11 16:15:26.155,-41,-364,948,-2685,-4821,-488
2025-10-11 16:15:26.202,-16,-380,920,-1831,-4089,-793
2025-10-11 16:15:26.203,-28,-441,963,10070,-4638,183
2025-10-11 16:15:26.203,-41,-435,967,26062,-8666,-549
2025-10-11 16:15:26.256,-24,-379,941,-30746,-8728,-1342
2025-10-11 16:15:26.256,-14,-330,962,-31784,-7263,-2075
2025-10-11 16:15:26.301,-2,-284,987,21484,-6652,-854
2025-10-11 16:15:26.301,0,-298,998,6835,-5859,244
2025-10-11 16:15:26.303,14,-312,988,-671,-2441,1770
2025-10-11 16:15:26.349,-4,-322,977,-610,1831,1525
2025-10-11 16:15:26.349,-21,-352,988,11901,61,671
2025-10-11 16:15:26.397,-7,-317,961,17822,-1342,-305
2025-10-11 16:15:26.398,-2,-292,958,17578,-854,-1037
2025-10-11 16:15:26.398,-11,-288,961,15197,-793,-549
2025-10-11 16:15:26.446,-8,-322,985,15625,-3967,-793
2025-10-11 16:15:26.447,3,-303,965,17883,-6164,610
2025-10-11 16:15:26.519,0,-267,941,13244,-4699,1159
2025-10-11 16:15:26.519,0,-264,960,5432,-4333,854
2025-10-11 16:15:26.544,0,-279,975,1037,-4577,427
2025-10-11 16:15:26.544,4,-296,967,3051,-3845,671
2025-10-11 16:15:26.547,0,-299,970,8483,-4333,-488
2025-10-11 16:15:26.593,10,-290,960,10681,-4211,-793
2025-10-11 16:15:26.593,10,-261,959,7873,-3662,-854
2025-10-11 16:15:26.641,2,-252,963,2624,-3601,-976
2025-10-11 16:15:26.641,2,-284,987,1892,-4455,-854
2025-10-11 16:15:26.642,6,-288,995,6042,-4943,-305
2025-10-11 16:15:26.689,11,-286,992,10437,-2929,-183
2025-10-11 16:15:26.690,8,-280,994,13732,-1525,-122
2025-10-11 16:15:26.738,4,-254,1000,13183,-1953,-244
2025-10-11 16:15:26.739,7,-257,1008,11474,-3051,-488
2025-10-11 16:15:26.740,16,-259,1008,10803,-1953,-366
2025-10-11 16:15:26.799,14,-245,996,7690,-488,915
2025-10-11 16:15:26.799,1,-262,992,4638,-1525,1770
2025-10-11 16:15:26.837,2,-280,995,7446,-4272,2624
2025-10-11 16:15:26.837,6,-265,1002,11901,-6164,3540
2025-10-11 16:15:26.885,22,-228,996,11291,-4699,2624
2025-10-11 16:15:26.885,29,-203,994,3967,610,1892
2025-10-11 16:15:26.887,20,-230,1014,-1586,2746,1586
2025-10-11 16:15:26.933,16,-241,1002,-1464,2441,2075
2025-10-11 16:15:26.934,11,-243,993,427,1464,2075
2025-10-11 16:15:26.983,7,-241,991,3540,-732,1708
2025-10-11 16:15:26.984,14,-220,997,2624,-1586,1342
2025-10-11 16:15:26.985,22,-214,996,793,-610,366
2025-10-11 16:15:27.031,20,-222,989,-1831,1037,305
2025-10-11 16:15:27.032,24,-251,992,-854,1525,854
2025-10-11 16:15:27.132,17,-245,987,2502,183,1586
2025-10-11 16:15:27.133,19,-223,984,2380,-1525,854
2025-10-11 16:15:27.133,23,-210,980,-1342,-1159,-122
2025-10-11 16:15:27.133,13,-224,994,-2441,-61,305
2025-10-11 16:15:27.179,7,-228,999,-1586,-1037,-732
2025-10-11 16:15:27.179,20,-235,994,427,-1220,-793
2025-10-11 16:15:27.179,15,-242,989,3051,-1464,-1037
2025-10-11 16:15:27.180,16,-244,993,3784,-2441,-427
2025-10-11 16:15:27.226,22,-240,993,3356,-1892,549
2025-10-11 16:15:27.227,16,-209,998,-671,-854,671
2025-10-11 16:15:27.274,8,-225,1009,-4272,-1220,-671
2025-10-11 16:15:27.275,9,-250,1009,-1403,-2868,-1342
2025-10-11 16:15:27.323,22,-254,1002,1586,-2746,-976
2025-10-11 16:15:27.324,29,-254,1005,3051,-1708,0
2025-10-11 16:15:27.325,30,-241,999,2868,427,1037
2025-10-11 16:15:27.372,23,-238,994,4211,1525,1708
2025-10-11 16:15:27.373,11,-228,1002,5249,305,854
2025-10-11 16:15:27.423,16,-212,998,3845,-549,244
2025-10-11 16:15:27.423,22,-204,1000,-1647,0,-549
2025-10-11 16:15:27.423,22,-242,1007,-3173,976,-183
2025-10-11 16:15:27.471,22,-251,1010,793,1464,366
2025-10-11 16:15:27.471,17,-225,1000,1403,1892,488
2025-10-11 16:15:27.519,13,-224,987,-1220,1159,-305
2025-10-11 16:15:27.519,11,-240,981,-244,61,-793
2025-10-11 16:15:27.520,15,-241,976,3234,-1037,-488
2025-10-11 16:15:27.567,17,-209,981,-793,-1098,-366
2025-10-11 16:15:27.567,23,-213,1003,-4821,61,-1831
2025-10-11 16:15:27.616,20,-242,1005,-2929,793,-1647
2025-10-11 16:15:27.616,17,-247,994,-488,793,-1464
2025-10-11 16:15:27.664,16,-245,986,0,61,-1037
2025-10-11 16:15:27.665,15,-230,986,-610,-427,-671
2025-10-11 16:15:27.666,12,-243,996,366,-1770,-854
2025-10-11 16:15:27.716,22,-229,990,854,-2014,-976
2025-10-11 16:15:27.716,16,-231,996,793,-1586,-1586
2025-10-11 16:15:27.763,20,-243,1002,1098,-1525,-1281
2025-10-11 16:15:27.763,25,-244,999,854,-793,-610
2025-10-11 16:15:27.764,19,-247,1002,1037,-671,0
2025-10-11 16:15:27.811,12,-235,1005,2441,-1831,244
2025-10-11 16:15:27.811,17,-219,1004,1770,-1647,-488
2025-10-11 16:15:27.859,23,-218,1008,427,-366,-1098
2025-10-11 16:15:27.860,24,-235,1002,671,1464,-1220
2025-10-11 16:15:27.861,18,-249,998,2258,1159,-366
2025-10-11 16:15:27.908,25,-239,991,2746,-183,-183
2025-10-11 16:15:27.909,22,-233,989,3112,-1342,-244
2025-10-11 16:15:27.957,20,-223,993,3295,-2258,-671
2025-10-11 16:15:27.958,29,-221,991,2197,-1770,-1770
2025-10-11 16:15:27.959,35,-220,1001,915,305,-671
2025-10-11 16:15:28.008,27,-222,1002,-122,1098,-1037
2025-10-11 16:15:28.008,27,-229,996,-976,488,-915
2025-10-11 16:15:28.055,26,-226,993,-1708,-366,-1037
2025-10-11 16:15:28.055,26,-219,997,-3051,-549,-1464
2025-10-11 16:15:28.103,32,-210,996,-5798,1647,-1464
2025-10-11 16:15:28.104,19,-241,1000,-5554,3417,-1770
2025-10-11 16:15:28.104,11,-265,999,-1647,2197,-1586
2025-10-11 16:15:28.152,6,-260,992,1831,-854,-915
2025-10-11 16:15:28.153,17,-234,994,122,-2075,-1037
2025-10-11 16:15:28.201,27,-231,997,-1831,-244,-854
2025-10-11 16:15:28.201,22,-244,994,-366,1159,-793
2025-10-11 16:15:28.202,11,-247,993,1220,671,-549
2025-10-11 16:15:28.249,11,-250,998,2197,-1647,-671
2025-10-11 16:15:28.250,23,-237,997,1770,-2990,-549
2025-10-11 16:15:28.307,30,-233,999,183,-2502,-305
2025-10-11 16:15:28.307,29,-234,1003,-976,-671,61
2025-10-11 16:15:28.307,18,-231,1010,-1220,793,305
2025-10-11 16:15:28.349,15,-230,1011,-122,1037,-854
2025-10-11 16:15:28.349,20,-235,1009,1953,-549,-915
2025-10-11 16:15:28.396,29,-232,997,61,-549,-1281
2025-10-11 16:15:28.397,33,-252,1002,-122,183,0
2025-10-11 16:15:28.445,36,-243,1002,915,1098,671
2025-10-11 16:15:28.446,31,-217,994,-1220,1831,427
2025-10-11 16:15:28.446,14,-218,990,-3601,1464,-549
2025-10-11 16:15:28.493,9,-243,992,-488,-671,-1586
2025-10-11 16:15:28.494,23,-245,992,3173,-2014,-2502
2025-10-11 16:15:28.542,36,-236,984,3845,-671,-1647
2025-10-11 16:15:28.543,26,-233,989,2075,854,-305
2025-10-11 16:15:28.543,17,-237,998,2014,671,61
2025-10-11 16:15:28.641,15,-231,997,3906,244,-1342
2025-10-11 16:15:28.642,15,-235,990,5981,-732,-2319
2025-10-11 16:15:28.643,22,-232,975,7995,-1525,-2136
2025-10-11 16:15:28.689,24,-203,971,3417,-1770,-1586
2025-10-11 16:15:28.689,32,-231,986,-1953,-1831,-2258
2025-10-11 16:15:28.690,40,-238,992,-1586,-1098,-305
2025-10-11 16:15:28.737,35,-203,989,-3295,1403,-305
2025-10-11 16:15:28.738,18,-200,992,-8544,2441,-1342
2025-10-11 16:15:28.739,17,-224,989,-9704,2258,-2014
2025-10-11 16:15:28.740,24,-245,993,-5371,1525,-1770
2025-10-11 16:15:28.786,34,-255,1010,-4272,1098,-854
2025-10-11 16:15:28.787,39,-252,1014,-2502,2014,-122
2025-10-11 16:15:28.858,27,-227,1005,-4089,2624,-549
2025-10-11 16:15:28.858,14,-229,999,-5615,2014,-1159
2025-10-11 16:15:28.884,12,-252,1001,-2868,0,-1586
2025-10-11 16:15:28.885,23,-253,996,915,-1037,-1953
2025-10-11 16:15:28.885,25,-244,998,1403,-976,-2197
2025-10-11 16:15:28.933,30,-257,1006,915,-549,-1770
2025-10-11 16:15:28.933,30,-262,1011,1892,244,-671
2025-10-11 16:15:28.981,24,-249,1004,1098,1586,-305
2025-10-11 16:15:28.982,16,-251,992,1525,1464,-976
2025-10-11 16:15:28.982,11,-251,987,3173,-183,-1220
2025-10-11 16:15:29.030,8,-261,981,4455,-1464,-976
2025-10-11 16:15:29.030,12,-268,986,6225,-2441,-427
2025-10-11 16:15:29.078,27,-257,978,7507,-1586,-183
2025-10-11 16:15:29.079,14,-258,983,8544,-1037,671
2025-10-11 16:15:29.080,16,-257,985,10803,-2441,793
2025-10-11 16:15:29.148,20,-244,979,12878,-3234,793
2025-10-11 16:15:29.149,20,-245,991,15991,-4577,610
2025-10-11 16:15:29.178,32,-229,995,22521,-5126,-1831
2025-10-11 16:15:29.178,32,-216,986,26977,-4211,-2014
2025-10-11 16:15:29.225,31,-224,991,31127,-4760,-2197
2025-10-11 16:15:29.227,35,-214,987,-31540,-5615,-1892
2025-10-11 16:15:29.227,24,-198,1003,-29160,-6591,-244
2025-10-11 16:15:29.273,27,-187,1021,-25314,-7568,915
2025-10-11 16:15:29.274,28,-125,1030,-22690,-8544,244
2025-10-11 16:15:29.322,34,-82,1013,-24765,-7507,-1220
2025-10-11 16:15:29.322,33,-51,1005,-32028,-5676,-1098
2025-10-11 16:15:29.323,33,-70,1015,24902,-5859,-1098
2025-10-11 16:15:29.371,31,-91,1026,22155,-8239,-366
2025-10-11 16:15:29.372,17,-156,1035,-30746,-11047,-1159
2025-10-11 16:15:29.439,-16,-284,1026,11978,-14587,-2075
2025-10-11 16:15:29.439,-1,-357,1047,20051,-26611,4333
2025-10-11 16:15:29.439,5,-87,995,8225,20248,4516
2025-10-11 16:15:29.470,41,226,926,9446,11093,366
2025-10-11 16:15:29.470,67,259,917,4441,9628,-1403
2025-10-11 16:15:29.517,128,173,929,26475,4074,-671
2025-10-11 16:15:29.518,125,92,801,6471,778,-1098
2025-10-11 16:15:29.519,153,162,773,78,-5814,9582
2025-10-11 16:15:29.566,274,579,718,-22688,-14359,16723
2025-10-11 16:15:29.567,341,1020,578,27452,6454,8117
2025-10-11 16:15:29.614,320,884,601,-31447,31052,8361
2025-10-11 16:15:29.615,295,650,655,-28762,-21972,16174
2025-10-11 16:15:29.664,314,674,586,4441,-20324,25817
2025-10-11 16:15:29.664,327,984,432,-6667,-14770,25695
2025-10-11 16:15:29.665,316,1143,403,3571,-8972,13977
2025-10-11 16:15:29.727,341,1098,403,10269,-4089,9582
2025-10-11 16:15:29.728,319,834,377,809,-427,5798
2025-10-11 16:15:29.762,322,758,383,27786,-6530,10375
2025-10-11 16:15:29.762,334,851,312,-23406,-12756,8972
2025-10-11 16:15:29.762,343,1069,189,12589,-8605,4333
2025-10-11 16:15:29.811,344,982,203,-8713,-6286,7080
2025-10-11 16:15:29.811,369,971,216,-11765,-7751,9887
2025-10-11 16:15:29.859,387,1023,170,-20554,-6286,4577
2025-10-11 16:15:29.859,349,1033,118,31005,-2502,-1647
2025-10-11 16:15:29.860,325,1020,121,15625,-4943,-1586
2025-10-11 16:15:29.907,334,972,148,2441,-10498,-3906
2025-10-11 16:15:29.908,344,900,170,2929,-14648,-5065
2025-10-11 16:15:29.956,338,906,151,10253,-13549,-5371
2025-10-11 16:15:29.957,349,947,143,9399,-8300,-4333
2025-10-11 16:15:29.958,361,995,143,-2136,-4821,-5493
2025-10-11 16:15:30.013,339,967,149,-15441,-2868,-5920
2025-10-11 16:15:30.014,331,881,167,-20141,-2929,-5310
2025-10-11 16:15:30.057,328,824,186,-8728,-4516,-1098
2025-10-11 16:15:30.057,333,894,178,4577,-3784,1586
2025-10-11 16:15:30.102,324,981,174,2136,-1953,61
2025-10-11 16:15:30.103,321,993,179,-9704,-1892,-2441
2025-10-11 16:15:30.103,318,932,194,-12756,-2624,-2380
2025-10-11 16:15:30.151,318,900,229,-2746,-6408,61
2025-10-11 16:15:30.151,335,944,233,6958,-8605,-244
2025-10-11 16:15:30.199,345,1032,224,122,-7507,-427
2025-10-11 16:15:30.201,328,943,214,-4394,-3417,-4272
2025-10-11 16:15:30.201,315,839,223,13427,-2807,61
2025-10-11 16:15:30.248,350,976,222,24536,-3906,4882
2025-10-11 16:15:30.249,364,1113,179,4028,1831,671
2025-10-11 16:15:30.300,310,973,165,-11596,6225,-2868
2025-10-11 16:15:30.301,321,841,204,5493,2258,1220
2025-10-11 16:15:30.301,342,977,192,19775,-1281,3051
2025-10-11 16:15:30.349,340,1114,154,-1342,1708,-3051
2025-10-11 16:15:30.349,322,1033,142,-32348,7751,-6774
2025-10-11 16:15:30.395,332,907,210,-24597,6530,-2319
2025-10-11 16:15:30.396,356,980,217,-17578,7690,-2563
2025-10-11 16:15:30.492,374,1147,195,27817,13916,-6774
2025-10-11 16:15:30.493,377,1164,146,-18082,25634,-16235
2025-10-11 16:15:30.494,325,1072,177,152,-31906,-20568
2025-10-11 16:15:30.541,293,1070,279,12038,30090,-15747
2025-10-11 16:15:30.542,360,861,373,-11338,31066,-14404
2025-10-11 16:15:30.542,356,742,395,-10240,-27328,-18310
2025-10-11 16:15:30.543,257,669,406,-7981,-20309,-21972
2025-10-11 16:15:30.591,163,548,516,29983,-30075,-3051
2025-10-11 16:15:30.592,260,444,743,26763,27160,8544
2025-10-11 16:15:30.592,265,684,715,-4105,29541,2563
2025-10-11 16:15:30.640,219,911,702,-24490,-27512,-8972
2025-10-11 16:15:30.640,227,987,698,-18891,-21225,-16723
2025-10-11 16:15:30.641,160,906,708,-27452,-16403,-22766
2025-10-11 16:15:30.688,148,708,822,-19350,-24094,-23620
2025-10-11 16:15:30.688,144,476,885,26594,31372,-23376
2025-10-11 16:15:30.736,131,314,912,-29787,30822,-21362
2025-10-11 16:15:30.737,117,186,918,-5922,-25864,-17272
2025-10-11 16:15:30.784,77,-5,951,-10545,-17197,-12390
2025-10-11 16:15:30.785,4,-212,1004,-16511,-26047,-6896
2025-10-11 16:15:30.786,-20,-249,1026,-22781,21850,-1281
2025-10-11 16:15:30.833,18,-195,1029,17746,3662,-793
2025-10-11 16:15:30.834,61,-96,1021,-27587,-3967,-2075
2025-10-11 16:15:30.883,95,-59,1004,-18249,-976,427
2025-10-11 16:15:30.891,95,-75,1021,-15502,5371,3356
2025-10-11 16:15:30.891,79,-73,1056,-14160,7202,6164
2025-10-11 16:15:30.932,75,72,1026,30380,7873,4943
2025-10-11 16:15:30.932,59,85,1005,-7706,10253,1281
2025-10-11 16:15:30.980,52,-82,1021,-15213,9826,-549
2025-10-11 16:15:30.980,37,-250,1034,14694,9155,183
2025-10-11 16:15:30.981,42,-249,1020,-19042,7629,1220
2025-10-11 16:15:31.028,24,-193,982,-2502,7019,-305
2025-10-11 16:15:31.029,23,-200,1006,5126,3417,-732
2025-10-11 16:15:31.078,35,-193,1019,12634,-1464,-1708
2025-10-11 16:15:31.078,51,-199,1025,18066,-3417,-732
2025-10-11 16:15:31.079,62,-164,1015,19348,-2258,0
2025-10-11 16:15:31.126,65,-129,1018,13122,-549,610
2025-10-11 16:15:31.127,58,-144,1035,6225,-854,-183
2025-10-11 16:15:31.177,72,-157,1030,5432,1525,732
2025-10-11 16:15:31.177,67,-130,1014,4394,3906,732
2025-10-11 16:15:31.225,27,-125,1014,1831,4028,1708
2025-10-11 16:15:31.225,36,-128,1015,-61,1953,-1647
2025-10-11 16:15:31.226,60,-128,991,-2197,2014,-3356
2025-10-11 16:15:31.272,60,-127,973,-6958,4150,-2990
2025-10-11 16:15:31.272,27,-143,979,-13000,3662,-2746
2025-10-11 16:15:31.321,35,-186,997,-12573,488,-1708
2025-10-11 16:15:31.321,33,-190,996,-6713,-427,-671
2025-10-11 16:15:31.322,40,-196,1010,1464,-366,-183
2025-10-11 16:15:31.369,36,-154,1007,4760,0,-1159
2025-10-11 16:15:31.370,37,-123,1016,-2319,-244,-2014
2025-10-11 16:15:31.445,60,-131,1008,-11352,3662,-3417
2025-10-11 16:15:31.445,45,-149,1006,-16418,6713,-3417
2025-10-11 16:15:31.445,27,-173,1001,-16723,6164,-2685
2025-10-11 16:15:31.468,10,-215,1010,-10498,2990,-1525
2025-10-11 16:15:31.468,30,-219,1014,1220,183,-1403
2025-10-11 16:15:31.517,40,-156,997,5981,1586,-1586
2025-10-11 16:15:31.518,31,-128,989,1586,3967,-3051
2025-10-11 16:15:31.519,10,-161,1000,-61,2197,-4150
2025-10-11 16:15:31.565,23,-177,999,6103,-3051,-4882
2025-10-11 16:15:31.566,42,-154,981,9094,-2685,-5615
2025-10-11 16:15:31.614,30,-146,982,7263,-1342,-6225
2025-10-11 16:15:31.615,36,-170,993,5981,-1892,-6408
2025-10-11 16:15:31.662,36,-169,992,3601,-2258,-6103
2025-10-11 16:15:31.663,37,-183,994,183,-1586,-5249
2025-10-11 16:15:31.663,34,-201,996,427,-1586,-3173
2025-10-11 16:15:31.738,30,-199,996,2319,-2136,-2380
2025-10-11 16:15:31.738,28,-187,1004,3356,-2197,-793
2025-10-11 16:15:31.765,39,-181,1008,3906,-366,-915
2025-10-11 16:15:31.766,28,-167,1014,549,-122,-1464
2025-10-11 16:15:31.766,28,-172,1008,-4150,-976,-2563
2025-10-11 16:15:31.809,45,-206,1006,-3845,-854,-915
2025-10-11 16:15:31.809,41,-202,1005,-2136,-427,610
2025-10-11 16:15:31.857,30,-192,1011,-2990,-976,1647
2025-10-11 16:15:31.858,37,-182,1019,-4577,-1342,1708
2025-10-11 16:15:31.859,42,-168,1007,-6958,488,1464
2025-10-11 16:15:31.906,31,-174,1001,-8178,1770,1098
2025-10-11 16:15:31.907,15,-202,1009,-5615,-732,1098
2025-10-11 16:15:31.955,29,-203,1010,61,-3967,671
2025-10-11 16:15:31.955,45,-156,1002,61,-2197,1159
2025-10-11 16:15:32.031,38,-165,1020,-3295,-671,-61
2025-10-11 16:15:32.031,32,-194,1027,-2075,-915,-854
2025-10-11 16:15:32.031,42,-206,1023,2563,-915,-732
2025-10-11 16:15:32.058,50,-185,1024,4333,-1037,0
2025-10-11 16:15:32.058,54,-167,1017,732,-305,-366
2025-10-11 16:15:32.101,54,-189,1022,-2136,976,183
2025-10-11 16:15:32.102,50,-207,1028,0,1220,976
2025-10-11 16:15:32.103,45,-187,1016,1953,1281,1037
2025-10-11 16:15:32.150,37,-174,1010,1342,549,366
2025-10-11 16:15:32.151,36,-183,1015,3112,-549,61
2025-10-11 16:15:32.199,48,-180,1012,2502,732,-183
2025-10-11 16:15:32.201,43,-180,1014,61,1281,-183
2025-10-11 16:15:32.201,45,-192,1010,-1220,1403,-61
2025-10-11 16:15:32.248,36,-200,1005,671,793,244
2025-10-11 16:15:32.248,37,-202,1007,3601,-366,549
2025-10-11 16:15:32.351,38,-186,1013,4455,-1342,549
2025-10-11 16:15:32.352,45,-173,1014,2014,-732,-122
2025-10-11 16:15:32.352,41,-179,1018,122,793,122
2025-10-11 16:15:32.372,37,-180,1014,-793,1831,183
2025-10-11 16:15:32.373,36,-189,1017,732,1281,305
2025-10-11 16:15:32.408,36,-186,1011,2929,854,305
2025-10-11 16:15:32.408,33,-180,1010,4150,122,-61
2025-10-11 16:15:32.445,32,-170,1012,3845,-1098,366
2025-10-11 16:15:32.445,34,-163,1016,2990,-549,488
2025-10-11 16:15:32.445,45,-163,1021,1892,1464,-976
2025-10-11 16:15:32.491,40,-175,1018,976,2380,-915
2025-10-11 16:15:32.491,33,-188,1010,1098,1647,-183
2025-10-11 16:15:32.540,34,-177,1002,854,854,976
2025-10-11 16:15:32.540,40,-165,1003,610,1159,183
2025-10-11 16:15:32.541,35,-155,1001,0,1831,-427
2025-10-11 16:15:32.588,31,-168,994,-2441,1831,-1098
2025-10-11 16:15:32.589,31,-198,1000,-244,1403,-122
2025-10-11 16:15:32.637,30,-187,1005,2746,244,427
2025-10-11 16:15:32.638,32,-162,1001,1831,-183,61
2025-10-11 16:15:32.638,27,-167,1002,1159,0,-305
2025-10-11 16:15:32.688,26,-170,998,1770,366,-549
2025-10-11 16:15:32.688,22,-177,996,3356,427,-1159
2025-10-11 16:15:32.736,27,-192,993,6286,-854,-1342
2025-10-11 16:15:32.736,20,-191,996,9704,-2746,-854
2025-10-11 16:15:32.783,33,-182,1005,9826,-3051,244
2025-10-11 16:15:32.784,34,-162,998,6042,-305,488
2025-10-11 16:15:32.785,22,-161,998,3173,1281,732
2025-10-11 16:15:32.833,12,-174,1009,3479,305,1159
2025-10-11 16:15:32.833,20,-170,1015,7141,-1098,1525
2025-10-11 16:15:32.881,29,-149,1033,6835,-2075,2014
2025-10-11 16:15:32.881,27,-142,1048,3967,-976,1281
2025-10-11 16:15:32.882,31,-155,1055,1831,1098,915
2025-10-11 16:15:32.930,34,-159,1044,366,3479,122
2025-10-11 16:15:32.930,30,-159,1032,-1220,5004,427
2025-10-11 16:15:32.980,31,-163,1019,549,3723,1464
2025-10-11 16:15:32.980,20,-151,1015,4028,915,1647
2025-10-11 16:15:32.980,30,-135,1004,5432,366,1464
2025-10-11 16:15:33.028,25,-134,1015,5981,976,1098
2025-10-11 16:15:33.029,25,-129,1030,8178,488,1159
2025-10-11 16:15:33.076,39,-111,1013,7080,1464,-610
2025-10-11 16:15:33.077,8,-116,1016,4211,1892,-1281
2025-10-11 16:15:33.124,8,-147,1045,8544,-1159,-1403
2025-10-11 16:15:33.125,10,-125,1044,13732,-3662,-1098
2025-10-11 16:15:33.126,30,-104,1033,13244,-1342,-793
2025-10-11 16:15:33.173,53,-108,1009,5249,7873,-3417
2025-10-11 16:15:33.174,40,-121,989,-122,8666,-3784
2025-10-11 16:15:33.222,18,-152,993,915,3540,-2929
2025-10-11 16:15:33.223,39,-158,975,5310,-793,-2136
2025-10-11 16:15:33.224,28,-139,991,7507,-2563,793
2025-10-11 16:15:33.281,37,-119,1001,6225,-2502,2380
2025-10-11 16:15:33.281,40,-107,1007,3051,-915,2624
2025-10-11 16:15:33.321,21,-112,1012,3601,-671,4150
2025-10-11 16:15:33.323,6,-100,1015,5371,-1770,5249
2025-10-11 16:15:33.325,15,-64,1028,4455,-2380,5432
2025-10-11 16:15:33.368,39,-41,1029,-5432,1770,1220
2025-10-11 16:15:33.369,19,-98,1040,-7019,3540,-1159
2025-10-11 16:15:33.417,15,-135,1031,-793,2624,-732
2025-10-11 16:15:33.418,17,-111,1022,1892,1403,-671
2025-10-11 16:15:33.418,10,-104,1017,-671,610,-1159
2025-10-11 16:15:33.466,11,-109,1018,-2624,793,-1953
2025-10-11 16:15:33.467,12,-134,1019,-1892,1586,-1647
2025-10-11 16:15:33.514,22,-130,1021,-488,2929,-1770
2025-10-11 16:15:33.515,11,-126,1016,-671,3295,-2624
2025-10-11 16:15:33.570,15,-135,1019,-122,1831,-2136
2025-10-11 16:15:33.570,24,-129,1013,2319,671,-2258
2025-10-11 16:15:33.570,18,-108,1013,2258,1403,-2258
2025-10-11 16:15:33.613,22,-95,1007,-61,2502,-3234
2025-10-11 16:15:33.614,24,-117,1019,-610,2624,-3479
2025-10-11 16:15:33.661,23,-141,1019,2563,427,-2685
2025-10-11 16:15:33.662,33,-160,1007,7263,-1098,-366
2025-10-11 16:15:33.662,41,-168,1007,10559,-1770,3479
2025-10-11 16:15:33.709,37,-130,1014,10681,-1892,6103
2025-10-11 16:15:33.710,42,-64,1023,3784,-732,6164
2025-10-11 16:15:33.759,34,-39,1018,-7019,1831,5249
2025-10-11 16:15:33.759,11,-39,1022,-16845,2502,3295
2025-10-11 16:15:33.760,2,-117,1025,-12573,1831,2075
2025-10-11 16:15:33.807,-4,-130,1022,-3906,1220,2197
2025-10-11 16:15:33.808,-10,-88,1020,-3234,-61,854
2025-10-11 16:15:33.857,-2,-106,1030,-4516,-427,-366
2025-10-11 16:15:33.857,-7,-126,1028,-1464,488,-1098
2025-10-11 16:15:33.905,-21,-141,1039,4211,1159,-1342
2025-10-11 16:15:33.907,-15,-159,1039,9643,61,-1586
2025-10-11 16:15:33.907,-10,-154,1030,14160,-1037,-1281
2025-10-11 16:15:33.954,-17,-162,1029,19775,-2685,-183
2025-10-11 16:15:33.955,-8,-149,1038,27404,-5493,1647
2025-10-11 16:15:34.003,3,-123,1032,32104,-5004,2624
2025-10-11 16:15:34.004,-5,-112,1019,-26962,-5126,2929
2025-10-11 16:15:34.004,-13,-119,1020,-16525,-8972,4272
2025-10-11 16:15:34.051,-23,-108,1030,-473,-14404,6225
2025-10-11 16:15:34.051,-17,-104,1052,21805,-20996,8361
2025-10-11 16:15:34.099,27,-66,1042,-17547,-24719,10253
2025-10-11 16:15:34.128,41,15,1013,4792,-23864,9887
2025-10-11 16:15:34.128,35,87,975,20661,-22644,11413
2025-10-11 16:15:34.154,47,146,994,29450,-28076,12329
2025-10-11 16:15:34.155,76,239,970,27741,29892,12939
2025-10-11 16:15:34.246,117,360,955,17670,29465,10070
2025-10-11 16:15:34.247,139,426,919,5829,30136,5920
2025-10-11 16:15:34.247,151,448,890,-3692,32272,2502
2025-10-11 16:15:34.247,164,462,888,-9368,31662,3417
2025-10-11 16:15:34.294,178,496,818,-17852,32394,2868
2025-10-11 16:15:34.295,162,516,791,-30548,-30639,4577
2025-10-11 16:15:34.296,170,437,779,-25604,-29785,7202
2025-10-11 16:15:34.343,185,482,781,-10284,32761,9887
2025-10-11 16:15:34.344,199,616,723,-5462,-32470,8605
2025-10-11 16:15:34.345,182,698,685,-13946,-32592,3967
2025-10-11 16:15:34.418,199,528,689,13337,28671,6530
2025-10-11 16:15:34.418,223,663,600,-22658,24399,6713
2025-10-11 16:15:34.445,220,880,511,-29555,24704,3540
2025-10-11 16:15:34.445,220,914,467,16022,27512,2319
2025-10-11 16:15:34.445,229,797,455,18891,28244,1586
2025-10-11 16:15:34.491,255,807,419,-27785,25070,4272
2025-10-11 16:15:34.491,272,954,332,-24795,25497,2258
2025-10-11 16:15:34.538,291,1083,279,19196,28976,-1098
2025-10-11 16:15:34.539,294,1025,256,-4058,32700,-2746
2025-10-11 16:15:34.540,298,917,211,-823,-27404,1892
2025-10-11 16:15:34.587,323,1082,122,-13763,-22094,1953
2025-10-11 16:15:34.587,302,1224,108,5386,-19592,-305
2025-10-11 16:15:34.636,305,1170,92,21179,-14465,-1647
2025-10-11 16:15:34.637,298,960,104,4882,-9948,-1647
2025-10-11 16:15:34.638,314,938,115,14587,-7751,3295
2025-10-11 16:15:34.710,309,1038,84,8789,-2929,-244
2025-10-11 16:15:34.710,272,1032,89,-7263,-2319,-1647
2025-10-11 16:15:34.737,284,972,110,-13305,-4821,1525
2025-10-11 16:15:34.737,300,945,132,-8911,-5554,61
2025-10-11 16:15:34.785,306,934,119,-915,-2258,-793
2025-10-11 16:15:34.787,289,978,100,-3479,1403,427
2025-10-11 16:15:34.788,291,990,132,-11230,732,1464
2025-10-11 16:15:34.831,289,904,142,-8911,-183,-366
2025-10-11 16:15:34.832,307,932,136,2929,-122,1037
2025-10-11 16:15:34.879,288,1005,97,-1464,3662,-1342
2025-10-11 16:15:34.880,264,928,112,-4028,3784,732
2025-10-11 16:15:34.881,269,884,127,6164,-549,1770
2025-10-11 16:15:34.928,306,1006,114,7507,-1953,2380
2025-10-11 16:15:34.929,306,1020,102,-5249,1342,-61
2025-10-11 16:15:35.036,295,958,118,-8178,3479,2075
2025-10-11 16:15:35.036,312,937,137,-1525,2929,1831
2025-10-11 16:15:35.036,291,966,104,671,5432,1281
2025-10-11 16:15:35.036,282,947,114,3112,5065,2502
2025-10-11 16:15:35.076,304,996,123,2380,2624,2380
2025-10-11 16:15:35.077,298,1007,96,-3540,3234,366
2025-10-11 16:15:35.077,297,948,100,-2685,3112,549
2025-10-11 16:15:35.124,319,984,111,0,1953,1708
2025-10-11 16:15:35.124,313,1006,105,-7324,3540,976
2025-10-11 16:15:35.125,300,931,107,-8605,5065,2624
2025-10-11 16:15:35.172,302,930,101,5065,5798,2685
2025-10-11 16:15:35.173,277,999,100,2502,1892,-61
2025-10-11 16:15:35.222,287,955,106,915,-3723,0
2025-10-11 16:15:35.222,316,958,104,4150,-4760,1525
2025-10-11 16:15:35.223,323,982,110,4394,-1770,1525
2025-10-11 16:15:35.270,326,1005,118,549,1525,549
2025-10-11 16:15:35.270,309,1012,117,-5554,4089,-366
2025-10-11 16:15:35.329,282,950,117,-6896,2563,-1403
2025-10-11 16:15:35.329,291,942,130,1098,-2075,-61
2025-10-11 16:15:35.329,313,1000,128,3479,-3234,-976
2025-10-11 16:15:35.368,313,1005,126,-4028,488,-2746
2025-10-11 16:15:35.369,309,954,134,-3234,1586,-1892
2025-10-11 16:15:35.416,302,960,143,-854,427,-1098
2025-10-11 16:15:35.416,306,964,137,793,183,-793
2025-10-11 16:15:35.465,309,984,140,-610,1037,-610
2025-10-11 16:15:35.465,317,1001,139,-5432,2441,-793
2025-10-11 16:15:35.466,313,978,143,-10498,4516,-1708
2025-10-11 16:15:35.513,305,926,145,-5981,5371,-976
2025-10-11 16:15:35.514,314,1021,140,-5859,7080,305
2025-10-11 16:15:35.562,317,1100,133,-23864,10375,-2563
2025-10-11 16:15:35.563,315,1066,154,15549,12756,-3234
2025-10-11 16:15:35.563,356,1262,172,-20828,18188,-6286
2025-10-11 16:15:35.621,359,1319,129,-27192,31738,-12695
2025-10-11 16:15:35.622,227,881,187,-2915,-28305,-17578
2025-10-11 16:15:35.661,214,606,401,30837,23132,1892
2025-10-11 16:15:35.661,332,748,498,13641,17456,5310
2025-10-11 16:15:35.662,364,1182,440,-458,28442,-7141
2025-10-11 16:15:35.709,331,1261,332,-9812,-12192,-17517
2025-10-11 16:15:35.709,218,1044,348,-24721,259,-15075
2025-10-11 16:15:35.757,166,722,503,1692,-10056,-14343
2025-10-11 16:15:35.758,164,440,641,-32289,-30685,-10803
2025-10-11 16:15:35.807,146,187,683,22948,-31723,-6530
2025-10-11 16:15:35.807,80,159,837,11977,31555,-305
2025-10-11 16:15:35.808,100,291,984,-24994,21850,-2685
2025-10-11 16:15:35.855,160,332,1005,-23469,19653,-5615
2025-10-11 16:15:35.856,167,309,891,32119,32409,-5065
2025-10-11 16:15:35.912,132,198,940,24978,-24704,-732
2025-10-11 16:15:35.912,90,286,980,-6333,-28427,1586
2025-10-11 16:15:35.913,104,84,987,-30686,-31296,4211
2025-10-11 16:15:35.955,83,21,932,26549,-30746,5126
2025-10-11 16:15:35.955,65,-260,936,15822,-24826,8483
2025-10-11 16:15:36.001,34,-431,1039,22552,-30685,8544
2025-10-11 16:15:36.001,12,-105,998,-27359,26367,2136
2025-10-11 16:15:36.002,46,-6,879,-6257,25573,-2685
2025-10-11 16:15:36.050,36,-338,918,-21454,27709,183
2025-10-11 16:15:36.051,29,-604,929,23590,26550,4211
2025-10-11 16:15:36.098,-10,-593,955,12070,18005,7324
2025-10-11 16:15:36.099,-31,-473,926,-22644,6225,7873
2025-10-11 16:15:36.100,14,-435,908,-8117,732,3479
2025-10-11 16:15:36.147,0,-321,905,-8605,-3784,2685
2025-10-11 16:15:36.148,13,-350,931,-21240,-3540,-488
2025-10-11 16:15:36.201,28,-482,944,-9277,610,-1159
2025-10-11 16:15:36.201,8,-464,947,8117,549,-1037
2025-10-11 16:15:36.245,2,-451,958,18310,-1281,-1464
2025-10-11 16:15:36.246,13,-377,955,16418,-4333,-2685
2025-10-11 16:15:36.247,41,-365,934,4150,-1953,-4394
2025-10-11 16:15:36.294,29,-431,941,-244,3967,-1708
2025-10-11 16:15:36.294,7,-479,956,8056,4638,-427
2025-10-11 16:15:36.342,19,-470,942,20385,4455,-427
2025-10-11 16:15:36.343,5,-438,944,30578,2197,1586
2025-10-11 16:15:36.344,14,-384,934,24108,-366,-1892
2025-10-11 16:15:36.391,3,-301,935,2563,-1403,-3784
2025-10-11 16:15:36.391,14,-374,950,-12390,-61,-3906
2025-10-11 16:15:36.455,7,-470,967,-4028,427,-1892
2025-10-11 16:15:36.455,12,-449,955,9765,1037,-1220
2025-10-11 16:15:36.455,1,-405,936,16662,1953,-305
2025-10-11 16:15:36.494,-20,-376,943,15930,366,-1037
2025-10-11 16:15:36.494,-12,-321,937,5493,-1708,-2380
2025-10-11 16:15:36.538,-2,-368,950,-4211,-1647,-3845
2025-10-11 16:15:36.539,-4,-443,960,305,-1342,-2563
2025-10-11 16:15:36.540,7,-448,944,10131,244,-305
2025-10-11 16:15:36.586,0,-398,947,7568,-915,366
2025-10-11 16:15:36.587,8,-392,948,4455,-2197,1464
2025-10-11 16:15:36.635,13,-372,935,1953,-305,2380
2025-10-11 16:15:36.635,-7,-373,945,1586,366,2624
2025-10-11 16:15:36.683,-6,-368,948,4699,0,1220
2025-10-11 16:15:36.684,0,-345,946,6408,-1159,610
2025-10-11 16:15:36.684,5,-337,947,4699,-732,366
2025-10-11 16:15:36.734,8,-363,961,6408,-488,549
2025-10-11 16:15:36.734,7,-363,954,9399,427,549
2025-10-11 16:15:36.782,3,-368,956,15808,610,549
2025-10-11 16:15:36.782,2,-297,949,12512,-244,-854
2025-10-11 16:15:36.783,2,-295,949,610,-1464,-2136
2025-10-11 16:15:36.830,13,-365,960,-3295,-1647,-1647
2025-10-11 16:15:36.830,18,-382,959,2441,-488,366
2025-10-11 16:15:36.879,12,-362,961,6469,671,183
2025-10-11 16:15:36.879,-7,-336,971,7019,-732,-427
2025-10-11 16:15:36.880,6,-336,964,5004,-1464,-1953
2025-10-11 16:15:36.928,13,-321,956,1159,-732,-1403
2025-10-11 16:15:36.928,13,-327,953,-8239,488,-1586
2025-10-11 16:15:36.977,16,-364,958,-10681,549,244
2025-10-11 16:15:36.977,15,-415,941,-5554,-244,1770
2025-10-11 16:15:36.978,12,-402,927,-3234,-1525,4333
2025-10-11 16:15:37.029,4,-353,927,-7385,-3112,5310
2025-10-11 16:15:37.029,6,-355,941,-11596,-3662,3356
2025-10-11 16:15:37.074,7,-380,954,-6286,-3906,1831
2025-10-11 16:15:37.074,4,-385,951,4455,-3417,2075
2025-10-11 16:15:37.172,6,-342,947,7751,-2502,2319
2025-10-11 16:15:37.172,5,-337,963,6286,-2319,1586
2025-10-11 16:15:37.173,13,-327,957,6958,-1708,610
2025-10-11 16:15:37.220,1,-340,973,7995,-2014,0
2025-10-11 16:15:37.220,15,-338,962,9582,-1831,122
2025-10-11 16:15:37.221,8,-332,964,8544,-1586,-1220
2025-10-11 16:15:37.221,18,-353,974,10620,-2563,-976
2025-10-11 16:15:37.289,21,-340,976,12145,-2075,61
2025-10-11 16:15:37.289,14,-318,985,8666,-1403,-183
2025-10-11 16:15:37.290,18,-308,987,1281,-1525,0
2025-10-11 16:15:37.366,17,-326,983,-7202,-915,-366
2025-10-11 16:15:37.367,24,-353,975,-9216,549,732
2025-10-11 16:15:37.367,15,-371,970,-4882,1892,976
2025-10-11 16:15:37.368,6,-374,968,6408,61,793
2025-10-11 16:15:37.416,22,-343,949,9155,-366,-488
2025-10-11 16:15:37.417,11,-327,947,8117,-854,-305
2025-10-11 16:15:37.417,19,-325,948,6286,-610,-366
2025-10-11 16:15:37.464,8,-326,961,4821,-732,549
2025-10-11 16:15:37.466,15,-328,969,3540,-915,-122
2025-10-11 16:15:37.468,16,-340,960,4028,-122,-61
2025-10-11 16:15:37.513,0,-330,957,5187,366,305
2025-10-11 16:15:37.514,5,-336,970,8789,-244,-427
2025-10-11 16:15:37.598,18,-334,965,11169,-610,-610
2025-10-11 16:15:37.598,15,-322,961,10070,-1281,305
2025-10-11 16:15:37.598,13,-315,971,7995,-2319,61
2025-10-11 16:15:37.614,14,-294,963,2319,-2929,366
2025-10-11 16:15:37.614,28,-325,972,-1403,-1098,-427
2025-10-11 16:15:37.660,21,-340,975,2807,61,427
2025-10-11 16:15:37.660,9,-328,970,6774,-244,854
2025-10-11 16:15:37.661,9,-322,975,9826,-1342,854
2025-10-11 16:15:37.707,7,-288,976,10864,-2319,976
2025-10-11 16:15:37.708,15,-266,982,6347,-1647,-793
2025-10-11 16:15:37.756,20,-286,989,2563,-549,-915
2025-10-11 16:15:37.757,21,-290,982,1770,1586,-1220
2025-10-11 16:15:37.758,14,-317,989,5798,610,-1281
2025-10-11 16:15:37.804,11,-297,981,9704,-732,-854
2025-10-11 16:15:37.805,15,-274,979,7019,-1281,-1159
2025-10-11 16:15:37.853,17,-268,980,976,-1098,-854
2025-10-11 16:15:37.854,25,-294,987,-1892,1098,-671
2025-10-11 16:15:37.905,15,-306,980,2685,2075,-427
2025-10-11 16:15:37.905,11,-291,971,7019,1342,-1342
2025-10-11 16:15:37.905,18,-265,962,4211,-244,-1464
2025-10-11 16:15:37.953,17,-280,967,183,-1892,-1953
2025-10-11 16:15:37.953,19,-306,984,3540,-2136,-976
2025-10-11 16:15:38.000,28,-290,977,6408,244,-1098
2025-10-11 16:15:38.001,20,-277,971,6530,2258,-1159
2025-10-11 16:15:38.001,4,-268,971,4211,610,-793
2025-10-11 16:15:38.048,14,-270,971,1037,-2014,-1037
2025-10-11 16:15:38.049,18,-272,971,-2136,-2929,-671
2025-10-11 16:15:38.097,24,-294,985,-1098,-2014,-183
2025-10-11 16:15:38.098,24,-285,992,1464,-549,-366
2025-10-11 16:15:38.146,18,-277,989,1525,-183,-1159
2025-10-11 16:15:38.146,10,-288,989,1220,-915,-1159
2025-10-11 16:15:38.147,16,-295,994,2319,-2380,-122
2025-10-11 16:15:38.196,33,-286,994,1464,-1403,61
2025-10-11 16:15:38.196,26,-286,989,1281,61,427
2025-10-11 16:15:38.245,17,-279,993,915,0,366
2025-10-11 16:15:38.245,21,-279,992,1525,-488,-549
2025-10-11 16:15:38.246,24,-287,992,2258,-915,-854
2025-10-11 16:15:38.292,25,-293,990,3417,-610,-1098
2025-10-11 16:15:38.293,29,-282,989,1770,488,-183
2025-10-11 16:15:38.342,25,-281,993,-915,1037,427
2025-10-11 16:15:38.342,20,-286,987,-793,671,1037
2025-10-11 16:15:38.343,20,-281,984,2319,183,0
2025-10-11 16:15:38.390,20,-259,982,3356,-122,61
2025-10-11 16:15:38.391,15,-260,982,1525,-183,-854
2025-10-11 16:15:38.439,18,-263,985,-1892,-854,-854
2025-10-11 16:15:38.439,29,-261,982,-6591,-427,-1342
2025-10-11 16:15:38.440,31,-285,979,-8178,1464,-976
2025-10-11 16:15:38.496,18,-315,980,-1708,2014,61
2025-10-11 16:15:38.496,8,-305,979,5981,610,183
2025-10-11 16:15:38.537,10,-265,979,7568,-1586,-1037
2025-10-11 16:15:38.537,24,-267,984,6103,-1770,-1464
2025-10-11 16:15:38.585,31,-261,985,2746,305,-549
2025-10-11 16:15:38.586,19,-258,987,-3662,366,-549
2025-10-11 16:15:38.586,20,-286,992,-3173,183,-1159
2025-10-11 16:15:38.634,21,-293,987,3662,122,-732
2025-10-11 16:15:38.634,18,-274,990,7263,-549,-1464
2025-10-11 16:15:38.682,21,-268,989,4882,-1647,-1831
2025-10-11 16:15:38.683,29,-261,990,2502,-854,-1037
2025-10-11 16:15:38.684,27,-255,993,122,976,-976
2025-10-11 16:15:38.731,20,-272,992,-305,1342,-1770
2025-10-11 16:15:38.731,25,-286,979,3662,915,-1831
2025-10-11 16:15:38.789,27,-286,955,10681,366,-1037
2025-10-11 16:15:38.789,19,-291,943,16418,-2624,-122
2025-10-11 16:15:38.789,15,-261,962,17944,-6469,1281
2025-10-11 16:15:38.829,13,-236,980,17578,-8666,1281
2025-10-11 16:15:38.829,15,-222,997,17272,-8239,1037
2025-10-11 16:15:38.877,26,-265,1006,22644,-7751,2624
2025-10-11 16:15:38.878,22,-277,1012,-30136,-7995,2136
2025-10-11 16:15:38.926,17,-272,1008,-15976,-10314,3112
2025-10-11 16:15:38.928,13,-238,1022,-3342,-14709,5004
2025-10-11 16:15:38.928,32,-244,1026,11795,-18493,6469
2025-10-11 16:15:38.975,29,-246,1021,-13031,-22827,8544
2025-10-11 16:15:38.976,33,-231,1008,23957,-28381,11047
2025-10-11 16:15:39.023,41,-50,967,-23147,32150,13671
2025-10-11 16:15:39.024,68,113,937,31891,30197,12878
2025-10-11 16:15:39.024,78,174,964,11506,29892,9033
2025-10-11 16:15:39.080,104,135,975,2595,28549,8605
2025-10-11 16:15:39.080,125,129,946,7966,29404,8605
2025-10-11 16:15:39.121,130,141,930,24018,28915,10498
2025-10-11 16:15:39.123,144,228,909,-25466,26840,12634
2025-10-11 16:15:39.123,169,343,871,-19423,25253,13427
2025-10-11 16:15:39.170,182,441,836,-27419,23178,9826
2025-10-11 16:15:39.170,202,477,814,-26076,19760,10559
2025-10-11 16:15:39.219,240,540,767,-21865,19577,8056
2025-10-11 16:15:39.219,245,650,748,-25527,20187,7812
2025-10-11 16:15:39.220,271,747,677,26337,22079,6103
2025-10-11 16:15:39.267,283,796,637,12604,28305,4516
2025-10-11 16:15:39.268,286,756,607,5524,32272,3234
2025-10-11 16:15:39.316,276,656,568,20112,-32348,2197
2025-10-11 16:15:39.317,288,751,535,-28945,28610,6164
2025-10-11 16:15:39.372,319,844,445,-27663,30441,4760
2025-10-11 16:15:39.372,347,937,389,23896,-26794,5126
2025-10-11 16:15:39.372,333,988,314,15900,-23315,3723
2025-10-11 16:15:39.414,338,1013,267,5829,-21667,2563
2025-10-11 16:15:39.416,342,1011,210,-3204,-22399,-122
2025-10-11 16:15:39.463,358,1109,166,-29876,-24169,-2075
2025-10-11 16:15:39.464,352,1069,116,1114,-21911,-5310
2025-10-11 16:15:39.464,344,979,104,-15915,-18371,-976
2025-10-11 16:15:39.511,327,927,133,-17197,-18676,-1953
2025-10-11 16:15:39.512,331,868,124,-3098,-22216,-3845
2025-10-11 16:15:39.561,338,976,69,4471,-23254,-5798
2025-10-11 16:15:39.561,348,1093,38,32653,-19042,-6958
2025-10-11 16:15:39.562,357,1064,24,1831,-14160,-6530
2025-10-11 16:15:39.608,360,1055,53,-20385,-10131,-3479
2025-10-11 16:15:39.609,354,968,84,-31616,-6042,-4943
2025-10-11 16:15:39.665,337,905,104,-23681,-3845,-3356
2025-10-11 16:15:39.666,323,928,110,-17456,-3540,-3479
2025-10-11 16:15:39.666,319,916,124,-13427,-4150,-1159
2025-10-11 16:15:39.707,340,946,136,-7080,-3479,1403
2025-10-11 16:15:39.707,350,1026,137,-10681,122,-305
2025-10-11 16:15:39.755,345,1046,123,-21728,3540,-183
2025-10-11 16:15:39.755,301,956,128,-17028,3601,305
2025-10-11 16:15:39.803,318,1008,149,-7141,732,-2319
2025-10-11 16:15:39.804,313,1019,121,-12145,1159,-5493
2025-10-11 16:15:39.805,316,965,132,-15991,1586,-3601
2025-10-11 16:15:39.853,319,902,167,-10253,1037,-1892
2025-10-11 16:15:39.854,313,867,168,4882,61,-1403
2025-10-11 16:15:39.901,323,976,141,9155,1586,-305
2025-10-11 16:15:39.901,301,979,134,-2685,3967,-2624
2025-10-11 16:15:39.902,297,864,155,3479,1464,-610
2025-10-11 16:15:39.956,302,913,147,12451,-2502,1037
2025-10-11 16:15:39.956,321,980,125,1953,610,549
2025-10-11 16:15:40.001,320,954,132,-1708,4455,1159
2025-10-11 16:15:40.001,312,919,151,1708,4272,1403
2025-10-11 16:15:40.001,317,970,133,1464,2746,976
2025-10-11 16:15:40.096,310,971,117,-6774,3479,244
2025-10-11 16:15:40.097,306,927,124,-10375,2563,1403
2025-10-11 16:15:40.098,307,906,137,-5676,610,2868
2025-10-11 16:15:40.098,320,943,142,-366,-244,2502
2025-10-11 16:15:40.146,318,1003,132,-4028,610,976
2025-10-11 16:15:40.146,307,955,142,-9216,366,427
2025-10-11 16:15:40.147,319,893,158,6042,-1708,2258
2025-10-11 16:15:40.194,330,970,146,10925,-1770,2807
2025-10-11 16:15:40.195,346,1044,129,-1708,1281,2502
2025-10-11 16:15:40.243,318,962,132,-10253,4150,1342
2025-10-11 16:15:40.252,329,947,146,-2685,2136,2990
2025-10-11 16:15:40.252,341,1019,137,-4028,1342,488
2025-10-11 16:15:40.292,332,1044,126,-18432,2990,-976
2025-10-11 16:15:40.293,359,1032,153,-31555,5371,-732
2025-10-11 16:15:40.340,382,1133,164,10544,10437,-1525
2025-10-11 16:15:40.341,369,1143,165,-28702,18859,-6713
2025-10-11 16:15:40.341,320,1026,205,6011,19958,-8178
2025-10-11 16:15:40.388,299,904,309,15228,11596,-4028
2025-10-11 16:15:40.389,321,986,300,10406,13305,-7446
2025-10-11 16:15:40.438,320,968,321,-8942,21728,-10925
2025-10-11 16:15:40.438,251,795,419,-11506,20568,-10437
2025-10-11 16:15:40.439,305,769,517,1617,14831,-2807
2025-10-11 16:15:40.486,359,997,558,-7721,20751,-1770
2025-10-11 16:15:40.487,357,1144,485,3737,-28183,-10375
2025-10-11 16:15:40.541,234,986,500,4881,-19089,-15075
2025-10-11 16:15:40.541,145,455,677,9276,-31845,-15075
2025-10-11 16:15:40.584,220,212,862,-8942,13427,-4577
2025-10-11 16:15:40.585,251,672,753,4425,22705,-11962
2025-10-11 16:15:40.585,186,726,762,29494,32287,-15502
2025-10-11 16:15:40.632,184,581,856,-15184,29724,-12573
2025-10-11 16:15:40.633,234,383,891,-30442,29479,-9887
2025-10-11 16:15:40.681,228,243,892,-21653,-28854,-7080
2025-10-11 16:15:40.681,169,181,901,-6333,-21652,-6774
2025-10-11 16:15:40.682,137,179,941,-3038,-19272,-8422
2025-10-11 16:15:40.730,132,58,951,1967,-18417,-9521
2025-10-11 16:15:40.730,123,-28,896,15700,-17197,-12084
2025-10-11 16:15:40.808,60,-78,896,26565,-23849,-6408
2025-10-11 16:15:40.808,17,-266,958,-19501,30944,1342
2025-10-11 16:15:40.808,32,-327,952,11810,22460,10742
2025-10-11 16:15:40.836,76,-188,933,16265,18920,9155
2025-10-11 16:15:40.836,78,-52,893,-20905,20690,610
2025-10-11 16:15:40.877,67,-270,903,21254,24780,3112
2025-10-11 16:15:40.877,32,-577,921,-10163,23742,8789
2025-10-11 16:15:40.880,-3,-677,928,-17776,17028,8789
2025-10-11 16:15:40.925,10,-615,918,26230,10131,1892
2025-10-11 16:15:40.925,10,-475,900,-22216,5065,-5493
2025-10-11 16:15:40.973,24,-390,887,25375,5065,-4638
2025-10-11 16:15:40.974,44,-549,891,23911,7568,-1831
2025-10-11 16:15:41.022,2,-617,894,-21545,6591,183
2025-10-11 16:15:41.022,-15,-682,921,13671,793,4455
2025-10-11 16:15:41.023,6,-585,907,-23422,-5676,4211
2025-10-11 16:15:41.071,23,-426,890,-23605,-8728,2563
2025-10-11 16:15:41.072,51,-300,882,9765,-6896,-3479
2025-10-11 16:15:41.120,48,-390,895,-19470,-1220,-5554
2025-10-11 16:15:41.121,21,-565,919,-15686,2441,-3051
2025-10-11 16:15:41.123,9,-589,910,5859,2136,-1586
2025-10-11 16:15:41.169,-4,-563,901,29602,-5249,0
2025-10-11 16:15:41.170,29,-463,894,-30441,-8056,-366
2025-10-11 16:15:41.267,39,-395,891,26000,-5798,-1647
2025-10-11 16:15:41.267,33,-423,909,11779,-2441,-4089
2025-10-11 16:15:41.268,17,-498,927,10009,-1403,-1281
2025-10-11 16:15:41.315,23,-500,918,16967,-1770,732
2025-10-11 16:15:41.316,20,-462,918,19409,-3173,1831
2025-10-11 16:15:41.316,30,-424,923,15563,-4638,488
2025-10-11 16:15:41.377,42,-423,914,10498,-3662,122
2025-10-11 16:15:41.378,41,-423,905,4699,-1281,610
2025-10-11 16:15:41.378,24,-437,907,-1586,-1892,3662
2025-10-11 16:15:41.378,12,-451,924,366,-5859,6225
2025-10-11 16:15:41.417,33,-430,920,2807,-8789,6896
2025-10-11 16:15:41.417,48,-416,918,5920,-8239,2441
2025-10-11 16:15:41.461,39,-412,924,11657,-6164,-1037
2025-10-11 16:15:41.462,40,-432,928,19104,-4638,-1342
2025-10-11 16:15:41.462,36,-408,917,20324,-4211,-2075
2025-10-11 16:15:41.510,33,-404,922,16723,-5249,-1037
2025-10-11 16:15:41.510,37,-410,934,13061,-7629,-183
2025-10-11 16:15:41.558,48,-402,936,10742,-7995,-488
2025-10-11 16:15:41.559,54,-419,939,15258,-4943,-366
2025-10-11 16:15:41.560,46,-417,943,19897,-3601,427
2025-10-11 16:15:41.607,41,-393,950,18798,-3845,427
2025-10-11 16:15:41.608,44,-410,960,18005,-5615,1647
2025-10-11 16:15:41.659,60,-397,960,18798,-5310,1647
2025-10-11 16:15:41.659,59,-353,956,15441,-3417,1220
2025-10-11 16:15:41.659,56,-356,954,11352,-1586,976
2025-10-11 16:15:41.705,53,-353,955,8666,-976,1098
2025-10-11 16:15:41.706,56,-368,956,6896,-1098,2014
2025-10-11 16:15:41.753,57,-363,956,5187,-1037,3112
2025-10-11 16:15:41.754,50,-375,966,7507,-2197,4150
2025-10-11 16:15:41.802,64,-353,958,10437,-1586,4150
2025-10-11 16:15:41.803,56,-319,954,8911,-1281,4760
2025-10-11 16:15:41.803,58,-303,951,1342,-671,4699
2025-10-11 16:15:41.851,65,-328,960,-1525,549,5798
2025-10-11 16:15:41.852,64,-354,967,183,1037,5187
2025-10-11 16:15:41.900,53,-333,954,1953,305,4394
2025-10-11 16:15:41.901,52,-346,962,3601,-915,2746
2025-10-11 16:15:41.901,52,-338,965,7202,-2197,2441
2025-10-11 16:15:41.955,59,-328,967,9155,-1892,2014
2025-10-11 16:15:41.955,58,-320,972,9033,-1953,915
2025-10-11 16:15:41.998,56,-325,979,9094,-2075,732
2025-10-11 16:15:41.999,66,-323,975,10375,-488,427
2025-10-11 16:15:42.000,67,-299,971,8911,1037,122
2025-10-11 16:15:42.046,59,-293,970,4394,671,-244
2025-10-11 16:15:42.046,54,-316,975,2624,-854,122
2025-10-11 16:15:42.095,55,-328,978,4821,-1708,305
2025-10-11 16:15:42.095,59,-320,986,6408,-1892,793
2025-10-11 16:15:42.143,70,-297,979,4516,122,1098
2025-10-11 16:15:42.144,64,-300,983,1342,2502,671
2025-10-11 16:15:42.145,54,-306,979,915,2197,-305
2025-10-11 16:15:42.215,38,-315,970,3295,427,-488
2025-10-11 16:15:42.215,48,-312,969,4882,-732,-976
2025-10-11 16:15:42.244,66,-308,966,5981,244,-1525
2025-10-11 16:15:42.244,58,-291,964,3417,1220,-610
2025-10-11 16:15:42.244,51,-307,958,244,1403,-549
2025-10-11 16:15:42.290,44,-331,959,2868,488,488
2025-10-11 16:15:42.291,43,-302,956,5432,-1525,305
2025-10-11 16:15:42.387,50,-280,959,4394,-2319,-732
2025-10-11 16:15:42.388,66,-271,962,3356,-976,-2807
2025-10-11 16:15:42.389,61,-280,964,-244,305,-3234
2025-10-11 16:15:42.389,41,-336,974,1464,-1464,-1159
2025-10-11 16:15:42.436,51,-328,975,4821,-3295,427
2025-10-11 16:15:42.437,64,-300,973,6347,-2014,976
2025-10-11 16:15:42.438,62,-289,980,5920,-244,61
2025-10-11 16:15:42.438,52,-286,981,5004,-122,-549
2025-10-11 16:15:42.494,46,-288,978,4150,-1342,-732
2025-10-11 16:15:42.494,50,-298,978,4272,-2746,-732
2025-10-11 16:15:42.583,57,-301,980,5859,-2990,0
2025-10-11 16:15:42.583,60,-300,987,7995,-2258,61
2025-10-11 16:15:42.584,62,-278,986,7324,-793,-244
2025-10-11 16:15:42.632,54,-268,980,3112,-366,-1159
2025-10-11 16:15:42.633,50,-291,977,1647,-793,0
2025-10-11 16:15:42.633,55,-286,979,1647,-1098,610
2025-10-11 16:15:42.634,61,-286,976,3234,-549,-122
2025-10-11 16:15:42.680,54,-287,977,4882,-671,-183
2025-10-11 16:15:42.681,59,-295,978,6835,-1403,-549
2025-10-11 16:15:42.682,57,-304,979,10803,-2197,-61
2025-10-11 16:15:42.729,56,-267,982,9826,-3234,1342
2025-10-11 16:15:42.729,68,-254,986,5249,-2441,1220
2025-10-11 16:15:42.811,74,-255,996,61,0,122
2025-10-11 16:15:42.811,60,-278,997,305,488,1098
2025-10-11 16:15:42.830,50,-272,996,1464,-1159,1281
2025-10-11 16:15:42.830,63,-273,997,1525,-2197,1464
2025-10-11 16:15:42.831,82,-266,992,2502,-915,1342
2025-10-11 16:15:42.875,80,-255,987,1892,1342,1525
2025-10-11 16:15:42.876,63,-253,983,-732,1647,1037
2025-10-11 16:15:42.923,50,-270,987,-610,-427,793
2025-10-11 16:15:42.924,57,-275,989,2258,-2441,-122
2025-10-11 16:15:42.925,72,-257,989,2990,-1281,-366
2025-10-11 16:15:42.972,66,-247,991,488,1464,-610
2025-10-11 16:15:42.973,52,-283,996,1159,305,-122
2025-10-11 16:15:43.021,61,-274,993,3845,-732,854
2025-10-11 16:15:43.022,73,-245,991,3295,-183,244
2025-10-11 16:15:43.022,72,-244,996,1831,305,0
2025-10-11 16:15:43.070,67,-254,994,1525,549,-183
2025-10-11 16:15:43.071,64,-254,995,1831,427,-427
2025-10-11 16:15:43.121,67,-251,997,1281,244,-244
2025-10-11 16:15:43.121,70,-249,999,366,732,-244
2025-10-11 16:15:43.121,69,-251,999,-976,1525,-793
2025-10-11 16:15:43.168,62,-259,1001,305,1586,-1159
2025-10-11 16:15:43.169,62,-261,998,2502,1098,-1586
2025-10-11 16:15:43.216,69,-249,990,1831,1098,-2136
2025-10-11 16:15:43.217,76,-244,975,-244,2441,-1464
2025-10-11 16:15:43.265,67,-262,970,-1770,3356,-732
2025-10-11 16:15:43.266,51,-273,973,-1098,1831,0
2025-10-11 16:15:43.267,52,-270,978,1892,-427,-549
2025-10-11 16:15:43.313,63,-244,973,3295,-366,-1098
2025-10-11 16:15:43.314,56,-237,973,976,732,-1525
2025-10-11 16:15:43.362,49,-263,982,-183,732,-1586
2025-10-11 16:15:43.362,56,-267,985,61,549,-915
2025-10-11 16:15:43.363,56,-246,980,-1953,976,-549
2025-10-11 16:15:43.411,58,-253,981,-2319,915,-1159
2025-10-11 16:15:43.422,58,-266,977,-1098,1159,-1342
2025-10-11 16:15:43.461,52,-277,980,183,244,-1037
2025-10-11 16:15:43.461,51,-275,981,427,-915,-793
2025-10-11 16:15:43.462,58,-257,985,305,-915,-488
2025-10-11 16:15:43.508,67,-256,987,-366,915,-854
2025-10-11 16:15:43.510,53,-258,985,-1647,1281,-610
2025-10-11 16:15:43.557,46,-265,980,-2502,671,-366
2025-10-11 16:15:43.558,43,-276,990,366,-976,61
2025-10-11 16:15:43.606,52,-262,998,1831,-1098,-427
2025-10-11 16:15:43.607,56,-260,993,671,-61,-1037
2025-10-11 16:15:43.607,63,-267,984,-549,1037,-244
2025-10-11 16:15:43.655,50,-273,976,-854,610,610
2025-10-11 16:15:43.656,45,-266,979,61,-976,1098
2025-10-11 16:15:43.715,50,-264,989,1281,-2319,-61
2025-10-11 16:15:43.715,60,-254,985,1831,-1708,-793
2025-10-11 16:15:43.715,61,-251,983,732,183,-1281
2025-10-11 16:15:43.755,48,-260,978,-549,610,-1159
2025-10-11 16:15:43.756,44,-280,984,1281,-2380,-244
2025-10-11 16:15:43.801,60,-267,988,1892,-2929,0
2025-10-11 16:15:43.802,67,-258,990,427,-671,427
2025-10-11 16:15:43.803,60,-258,994,-671,1281,0
2025-10-11 16:15:43.850,49,-274,995,366,61,-427
2025-10-11 16:15:43.851,49,-273,992,2563,-2502,-183
2025-10-11 16:15:43.898,62,-270,997,2441,-2685,0
2025-10-11 16:15:43.899,68,-269,999,1953,-366,732
